File: ML_works/classification/data/hea_data_phases.csv
Composition,Density,EquiTibrium conditions,Single/Muplitple_Phase,PhaseType,Reference,Tension0/Compression1,TestTempC,YieldStr(MPa),YieldStr(MPa)/density,Ductility (%),Hardness (HV),HIP,Anneal,CR,SPS,SPD,Grain Size (um),Strain Rate (s-1),Arc Melting,Melt Cooling Rate (degC/min),HIP Temp (degC),HIP Pressure (MPa),HIP Time (h),Anneal Temp (degC),Anneal Time (h),Anneal Cooling Rate (degC/min),Final CR DeformPercentage,SPS Temp (degC),SPS Pressure (MPa),SPS Hold Time (min),composition,H,He,Li,Be,B,C,N,O,F,Ne,Na,Mg,Al,Si,P,S,Cl,Ar,K,Ca,Sc,Ti,V,Cr,Mn,Fe,Co,Ni,Cu,Zn,Ga,Ge,As,Se,Br,Kr,Rb,Sr,Y,Zr,Nb,Mo,Tc,Ru,Rh,Pd,Ag,Cd,In,Sn,Sb,Te,I,Xe,Cs,Ba,La,Ce,Pr,Nd,Pm,Sm,Eu,Gd,Tb,Dy,Ho,Er,Tm,Yb,Lu,Hf,Ta,W,Re,Os,Ir,Pt,Au,Hg,Tl,Pb,Bi,Po,At,Rn,Fr,Ra,Ac,Th,Pa,U,Np,Pu,Am,Cm,Bk,Cf,Es,Fm,Md,No,Lr,Yang omega,Yang delta,Yang Ent,Yang Hmix,Yang Tm,Yang Hmax,Yang Tmax,Yang Phi,Yang delXi,Yang HPSigma,Yang HPSigma_min,Yang HPSigma_min05,Yang HPK,Yang VEC,Yang sigma_SS_Liaw,dr H,dr He,dr Li,dr Be,dr B,dr C,dr N,dr O,dr F,dr Ne,dr Na,dr Mg,dr Al,dr Si,dr P,dr S,dr Cl,dr Ar,dr K,dr Ca,dr Sc,dr Ti,dr V,dr Cr,dr Mn,dr Fe,dr Co,dr Ni,dr Cu,dr Zn,dr Ga,dr Ge,dr As,dr Se,dr Br,dr Kr,dr Rb,dr Sr,dr Y,dr Zr,dr Nb,dr Mo,dr Tc,dr Ru,dr Rh,dr Pd,dr Ag,dr Cd,dr In,dr Sn,dr Sb,dr Te,dr I,dr Xe,dr Cs,dr Ba,dr La,dr Ce,dr Pr,dr Nd,dr Pm,dr Sm,dr Eu,dr Gd,dr Tb,dr Dy,dr Ho,dr Er,dr Tm,dr Yb,dr Lu,dr Hf,dr Ta,dr W,dr Re,dr Os,dr Ir,dr Pt,dr Au,dr Hg,dr Tl,dr Pb,dr Bi,dr Po,dr At,dr Rn,dr Fr,dr Ra,dr Ac,dr Th,dr Pa,dr U,dr Np,dr Pu,dr Am,dr Cm,dr Bk,dr Cf,dr Es,dr Fm,dr Md,dr No,dr Lr,dG H,dG He,dG Li,dG Be,dG B,dG C,dG N,dG O,dG F,dG Ne,dG Na,dG Mg,dG Al,dG Si,dG P,dG S,dG Cl,dG Ar,dG K,dG Ca,dG Sc,dG Ti,dG V,dG Cr,dG Mn,dG Fe,dG Co,dG Ni,dG Cu,dG Zn,dG Ga,dG Ge,dG As,dG Se,dG Br,dG Kr,dG Rb,dG Sr,dG Y,dG Zr,dG Nb,dG Mo,dG Tc,dG Ru,dG Rh,dG Pd,dG Ag,dG Cd,dG In,dG Sn,dG Sb,dG Te,dG I,dG Xe,dG Cs,dG Ba,dG La,dG Ce,dG Pr,dG Nd,dG Pm,dG Sm,dG Eu,dG Gd,dG Tb,dG Dy,dG Ho,dG Er,dG Tm,dG Yb,dG Lu,dG Hf,dG Ta,dG W,dG Re,dG Os,dG Ir,dG Pt,dG Au,dG Hg,dG Tl,dG Pb,dG Bi,dG Po,dG At,dG Rn,dG Fr,dG Ra,dG Ac,dG Th,dG Pa,dG U,dG Np,dG Pu,dG Am,dG Cm,dG Bk,dG Cf,dG Es,dG Fm,dG Md,dG No,dG Lr
Al0.25MoNbTiV,7.1,AC,s,BCC,3,1,25,1250,176.9,12.7,460.1,0,0,0,0,0,,0.0005,1,,25,,0,25,0,10,0,,,,Al0.25 Mo1 Nb1 Ti1 V1,0,0,0,0,0,0,0,0,0,0,0,0,0.0588235,0,0,0,0,0,0,0,0,0.235294,0.235294,0,0,0,0,0,0,0,0,0,0,0,0,0,0,0,0,0,0.235294,0.235294,0,0,0,0,0,0,0,0,0,0,0,0,0,0,0,0,0,0,0,0,0,0,0,0,0,0,0,0,0,0,0,0,0,0,0,0,0,0,0,0,0,0,0,0,0,0,0,0,0,0,0,0,0,0,0,0,0,0,0,0,0,4.78104,0.039049,0.0127077,-6.25606,2353.73,0.110727,2896,4.27738,0.140971,162.941,10,91.25,367.647,4.88235,1335.19,0,0,0,0,0,0,0,0,0,0,0,0,-0.0289636,0,0,0,0,0,0,0,0,-0.052304,0.06103328,0,0,0,0,0,0,0,0,0,0,0,0,0,0,0,0,0,-0.0289636,0.0274752,0,0,0,0,0,0,0,0,0,0,0,0,0,0,0,0,0,0,0,0,0,0,0,0,0,0,0,0,0,0,0,0,0,0,0,0,0,0,0,0,0,0,0,0,0,0,0,0,0,0,0,0,0,0,0,0,0,0,0,0,0,0,0,0,0,0,0,0,0,0,0,0,0,0.368338,0,0,0,0,0,0,0,0,-0.107818,-0.315192,0,0,0,0,0,0,0,0,0,0,0,0,0,0,0,0,0,-0.286037,0.616962,0,0,0,0,0,0,0,0,0,0,0,0,0,0,0,0,0,0,0,0,0,0,0,0,0,0,0,0,0,0,0,0,0,0,0,0,0,0,0,0,0,0,0,0,0,0,0,0,0,0,0,0,0,0,0,0,0,0,0,0,0
Al0.5NbTaTiV,8.5,AC,S,BCC,4,1,25,1012,119.6,47.18,,0,0,0,0,0,,0.0002,1,,25,,0,25,0,10,0,,,,Al0.5 Nb1 Ta1 Ti1 V1,0,0,0,0,0,0,0,0,0,0,0,0,0.111111,0,0,0,0,0,0,0,0,0.222222,0.222222,0,0,0,0,0,0,0,0,0,0,0,0,0,0,0,0,0,0.222222,0,0,0,0,0,0,0,0,0,0,0,0,0,0,0,0,0,0,0,0,0,0,0,0,0,0,0,0,0,0,0,0.222222,0,0,0,0,0,0,0,0,0,0,0,0,0,0,0,0,0,0,0,0,0,0,0,0,0,0,0,0,0,0,3.69909,0.0359173,0.0131452,-8.39506,2362.39,0.0987654,3290,4.11846,0.0315578,112.222,10,67.5,381.111,7.66667,1157.93,0,0,0,0,0,0,0,0,0,0,0,0,-0.0148097,0,0,0,0,0,0,0,0,-0.0381556,0.0751799,0,0,0,0,0,0,0,0,0,0,0,0,0,0,0,0,0,-0.0148097,0,0,0,0,0,0,0,0,0,0,0,0,0,0,0,0,0,0,0,0,0,0,0,0,0,0,0,0,0,0,0,-0.0148097,0,0,0,0,0,0,0,0,0,0,0,0,0,0,0,0,0,0,0,0,0,0,0,0,0,0,0,0,0,0,0,0,0,0,0,0,0,0,0,0,0,0,0.597611,0,0,0,0,0,0,0,0,0.12399,-0.0886986,0,0,0,0,0,0,0,0,0,0,0,0,0,0,0,0,0,-0.0585658,0,0,0,0,0,0,0,0,0,0,0,0,0,0,0,0,0,0,0,0,0,0,0,0,0,0,0,0,0,0,0,-0.275531,0,0,0,0,0,0,0,0,0,0,0,0,0,0,0,0,0,0,0,0,0,0,0,0,0,0,0,0,0,0
AlMo0.5NbTa0.5TiZr,7.1,HIP+A,M,BCC+B2,5,1,25,2197,307.4,2.22,591.4,1,1,0,0,0,,0.001,1,,1400,207,4,1400,6,20,0,,,,Al1 Mo0.5 Nb1 Ta0.5 Ti1 Zr1,0,0,0,0,0,0,0,0,0,0,0,0,0.2,0,0,0,0,0,0,0,0,0.2,0,0,0,0,0,0,0,0,0,0,0,0,0,0,0,0,0,0.2,0.2,0.1,0,0,0,0,0,0,0,0,0,0,0,0,0,0,0,0,0,0,0,0,0,0,0,0,0,0,0,0,0,0,0.1,0,0,0,0,0,0,0,0,0,0,0,0,0,0,0,0,0,0,0,0,0,0,0,0,0,0,0,0,0,0,1.87199,0.0500471,0.0145334,-16.84,2169.094,0.16,3290,5.01713,0.137556,159,10,103.125,319,5.7,1187.97,0,0,0,0,0,0,0,0,0,0,0,0,0.0242736,0,0,0,0,0,0,0,0,0.000931311,0,0,0,0,0,0,0,0,0,0,0,0,0,0,0,0,0,-0.10195,0.0242736,0.08066974,0,0,0,0,0,0,0,0,0,0,0,0,0,0,0,0,0,0,0,0,0,0,0,0,0,0,0,0,0,0,0.0242736,0,0,0,0,0,0,0,0,0,0,0,0,0,0,0,0,0,0,0,0,0,0,0,0,0,0,0,0,0,0,0,0,0,0,0,0,0,0,0,0,0,0,0.397386,0,0,0,0,0,0,0,0,-0.08112206,0,0,0,0,0,0,0,0,0,0,0,0,0,0,0,0,0,-0.143153,-0.260734,0.646224,0,0,0,0,0,0,0,0,0,0,0,0,0,0,0,0,0,0,0,0,0,0,0,0,0,0,0,0,0,0,-0.470977,0,0,0,0,0,0,0,0,0,0,0,0,0,0,0,0,0,0,0,0,0,0,0,0,0,0,0,0,0,0
Al0.6MoTaTiV,8.7,AC,S,BCC,6,1,25,962,110.9,3.36,483.3,0,0,0,0,0,,0.001,1,,25,,0,25,0,10,0,,,,Al0.6 Mo1 Ta1 Ti1 V1,0,0,0,0,0,0,0,0,0,0,0,0,0.130435,0,0,0,0,0,0,0,0,0.217391,0.217391,0,0,0,0,0,0,0,0,0,0,0,0,0,0,0,0,0,0,0.217391,0,0,0,0,0,0,0,0,0,0,0,0,0,0,0,0,0,0,0,0,0,0,0,0,0,0,0,0,0,0,0.217391,0,0,0,0,0,0,0,0,0,0,0,0,0,0,0,0,0,0,0,0,0,0,0,0,0,0,0,0,0,0,3.12316,0.0380557,0.0132416,-10.0189,2363.06,0.047259,3290,4.33601,0.147341,142.609,10,86.25,437.826,7.78261,1325.17,0,0,0,0,0,0,0,0,0,0,0,0,-0.0267598,0,0,0,0,0,0,0,0,-0.0501015,0.06323727,0,0,0,0,0,0,0,0,0,0,0,0,0,0,0,0,0,0,0.02967994,0,0,0,0,0,0,0,0,0,0,0,0,0,0,0,0,0,0,0,0,0,0,0,0,0,0,0,0,0,0,-0.0267598,0,0,0,0,0,0,0,0,0,0,0,0,0,0,0,0,0,0,0,0,0,0,0,0,0,0,0,0,0,0,0,0,0,0,0,0,0,0,0,0,0,0,0.382876,0,0,0,0,0,0,0,0,-0.0894465,-0.295557,0,0,0,0,0,0,0,0,0,0,0,0,0,0,0,0,0,0,0.629222,0,0,0,0,0,0,0,0,0,0,0,0,0,0,0,0,0,0,0,0,0,0,0,0,0,0,0,0,0,0,-0.473943,0,0,0,0,0,0,0,0,0,0,0,0,0,0,0,0,0,0,0,0,0,0,0,0,0,0,0,0,0,0
HfNbTaTiZr,9.9,AC,s,BCC,7,1,25,1073,108.4,48.08,293,0,0,0,0,0,120,0.001,1,,25,,0,25,0,10,0,,,,Hf1 Nb1 Ta1 Ti1 Zr1,0,0,0,0,0,0,0,0,0,0,0,0,0,0,0,0,0,0,0,0,0,0.2,0,0,0,0,0,0,0,0,0,0,0,0,0,0,0,0,0,0.2,0.2,0,0,0,0,0,0,0,0,0,0,0,0,0,0,0,0,0,0,0,0,0,0,0,0,0,0,0,0,0,0,0.2,0.2,0,0,0,0,0,0,0,0,0,0,0,0,0,0,0,0,0,0,0,0,0,0,0,0,0,0,0,0,0,0,12.4117,0.0497103,0.0133809,2.72,2523,0.16,3290,3.21996,0.0813301,158,80,128.75,384,10,1664.59,0,0,0,0,0,0,0,0,0,0,0,0,0,0,0,0,0,0,0,0,0,0.0290088,0,0,0,0,0,0,0,0,0,0,0,0,0,0,0,0,0,-0.0739135,0.0523441,0,0,0,0,0,0,0,0,0,0,0,0,0,0,0,0,0,0,0,0,0,0,0,0,0,0,0,0,0,0,-0.0597835,0.0523441,0,0,0,0,0,0,0,0,0,0,0,0,0,0,0,0,0,0,0,0,0,0,0,0,0,0,0,0,0,0,0,0,0,0,0,0,0,0,0,0,0,0,0,0,0,0,0,0,0,0,0,0.0899122,0,0,0,0,0,0,0,0,0,0,0,0,0,0,0,0,0,0.0267824,-0.0935667,0,0,0,0,0,0,0,0,0,0,0,0,0,0,0,0,0,0,0,0,0,0,0,0,0,0,0,0,0,0,0.287817,-0.310945,0,0,0,0,0,0,0,0,0,0,0,0,0,0,0,0,0,0,0,0,0,0,0,0,0,0,0,0,0,0
Al0.4Hf0.6NbTaTiZr,9.1,HIP+A,s,BCC,8,1,25,1841,202.5,6.86,499.6,1,1,0,0,0,140,0.001,1,,1200,207,2,1200,24,10,0,,,,Al0.4 Hf0.6 Nb1 Ta1 Ti1 Zr1,0,0,0,0,0,0,0,0,0,0,0,0,0.08,0,0,0,0,0,0,0,0,0.2,0,0,0,0,0,0,0,0,0,0,0,0,0,0,0,0,0,0.2,0.2,0,0,0,0,0,0,0,0,0,0,0,0,0,0,0,0,0,0,0,0,0,0,0,0,0,0,0,0,0,0,0.12,0.2,0,0,0,0,0,0,0,0,0,0,0,0,0,0,0,0,0,0,0,0,0,0,0,0,0,0,0,0,0,0,5.49154,0.048907,0.0145,-6.3296,2397.2,0.16,3290,4.2624,0.0783328,150.8,10,86.5217,363.2,8.8,1420.94,0,0,0,0,0,0,0,0,0,0,0,0,0.043374,0,0,0,0,0,0,0,0,0.0200351,0,0,0,0,0,0,0,0,0,0,0,0,0,0,0,0,0,-0.0828804,0.043374,0,0,0,0,0,0,0,0,0,0,0,0,0,0,0,0,0,0,0,0,0,0,0,0,0,0,0,0,0,0,-0.0687536,0.043374,0,0,0,0,0,0,0,0,0,0,0,0,0,0,0,0,0,0,0,0,0,0,0,0,0,0,0,0,0,0,0,0,0,0,0,0,0,0,0,0,0,0,0.544791,0,0,0,0,0,0,0,0,0.0670131,0,0,0,0,0,0,0,0,0,0,0,0,0,0,0,0,0,0.004097981,-0.115753,0,0,0,0,0,0,0,0,0,0,0,0,0,0,0,0,0,0,0,0,0,0,0,0,0,0,0,0,0,0,0.264468,-0.331955,0,0,0,0,0,0,0,0,0,0,0,0,0,0,0,0,0,0,0,0,0,0,0,0,0,0,0,0,0,0
AlMo0.5NbTa0.5TiZr,7.1,HIP+A,M,BCC+B2,8,1,1000,745,104.2,43.3,,1,1,0,0,0,75,0.001,1,,1400,207,2,1400,24,10,0,,,,Al1 Mo0.5 Nb1 Ta0.5 Ti1 Zr1,0,0,0,0,0,0,0,0,0,0,0,0,0.2,0,0,0,0,0,0,0,0,0.2,0,0,0,0,0,0,0,0,0,0,0,0,0,0,0,0,0,0.2,0.2,0.1,0,0,0,0,0,0,0,0,0,0,0,0,0,0,0,0,0,0,0,0,0,0,0,0,0,0,0,0,0,0,0.1,0,0,0,0,0,0,0,0,0,0,0,0,0,0,0,0,0,0,0,0,0,0,0,0,0,0,0,0,0,0,1.87199,0.0500471,0.0145334,-16.84,2169.094,0.16,3290,5.01713,0.137556,159,10,103.125,319,5.7,1187.97,0,0,0,0,0,0,0,0,0,0,0,0,0.0242736,0,0,0,0,0,0,0,0,0.000931311,0,0,0,0,0,0,0,0,0,0,0,0,0,0,0,0,0,-0.10195,0.0242736,0.08066974,0,0,0,0,0,0,0,0,0,0,0,0,0,0,0,0,0,0,0,0,0,0,0,0,0,0,0,0,0,0,0.0242736,0,0,0,0,0,0,0,0,0,0,0,0,0,0,0,0,0,0,0,0,0,0,0,0,0,0,0,0,0,0,0,0,0,0,0,0,0,0,0,0,0,0,0.397386,0,0,0,0,0,0,0,0,-0.08112206,0,0,0,0,0,0,0,0,0,0,0,0,0,0,0,0,0,-0.143153,-0.260734,0.646224,0,0,0,0,0,0,0,0,0,0,0,0,0,0,0,0,0,0,0,0,0,0,0,0,0,0,0,0,0,0,-0.470977,0,0,0,0,0,0,0,0,0,0,0,0,0,0,0,0,0,0,0,0,0,0,0,0,0,0,0,0,0,0
Al0.4Hf0.6NbTaTiZr,9.1,HIP+A,S,BCC,9,1,1000,298,32.8,51.29,,1,1,0,0,0,140,0.001,1,,1200,207,2,1200,24,10,0,,,,Al0.4 Hf0.6 Nb1 Ta1 Ti1 Zr1,0,0,0,0,0,0,0,0,0,0,0,0,0.08,0,0,0,0,0,0,0,0,0.2,0,0,0,0,0,0,0,0,0,0,0,0,0,0,0,0,0,0.2,0.2,0,0,0,0,0,0,0,0,0,0,0,0,0,0,0,0,0,0,0,0,0,0,0,0,0,0,0,0,0,0,0.12,0.2,0,0,0,0,0,0,0,0,0,0,0,0,0,0,0,0,0,0,0,0,0,0,0,0,0,0,0,0,0,0,5.49154,0.048907,0.0145,-6.3296,2397.2,0.16,3290,4.2624,0.0783328,150.8,10,86.5217,363.2,8.8,1420.94,0,0,0,0,0,0,0,0,0,0,0,0,0.043374,0,0,0,0,0,0,0,0,0.0200351,0,0,0,0,0,0,0,0,0,0,0,0,0,0,0,0,0,-0.0828804,0.043374,0,0,0,0,0,0,0,0,0,0,0,0,0,0,0,0,0,0,0,0,0,0,0,0,0,0,0,0,0,0,-0.0687536,0.043374,0,0,0,0,0,0,0,0,0,0,0,0,0,0,0,0,0,0,0,0,0,0,0,0,0,0,0,0,0,0,0,0,0,0,0,0,0,0,0,0,0,0,0.544791,0,0,0,0,0,0,0,0,0.0670131,0,0,0,0,0,0,0,0,0,0,0,0,0,0,0,0,0,0.004097981,-0.115753,0,0,0,0,0,0,0,0,0,0,0,0,0,0,0,0,0,0,0,0,0,0,0,0,0,0,0,0,0,0,0.264468,-0.331955,0,0,0,0,0,0,0,0,0,0,0,0,0,0,0,0,0,0,0,0,0,0,0,0,0,0,0,0,0,0
Al0.5CrNbTi2V0.5,5.8,AC,S,BCC,10,1,25,1240,215,,,0,0,0,0,0,,0.0001,1,,25,,0,1200,24,10,0,,,,Al0.5 Cr1 Nb1 Ti2 V0.5,0,0,0,0,0,0,0,0,0,0,0,0,0.1,0,0,0,0,0,0,0,0,0.4,0.1,0.2,0,0,0,0,0,0,0,0,0,0,0,0,0,0,0,0,0.2,0,0,0,0,0,0,0,0,0,0,0,0,0,0,0,0,0,0,0,0,0,0,0,0,0,0,0,0,0,0,0,0,0,0,0,0,0,0,0,0,0,0,0,0,0,0,0,0,0,0,0,0,0,0,0,0,0,0,0,0,0,0,2.31406,0.0485811,0.0122283,-10.96,2074.047,0.16,2750,4.49315,0.0294356,194,10,112.222,351,4.6,2391.29,0,0,0,0,0,0,0,0,0,0,0,0,-0.0223847,0,0,0,0,0,0,0,0,-0.0457221,0.0675869,0.0912277,0,0,0,0,0,0,0,0,0,0,0,0,0,0,0,0,-0.0223847,0,0,0,0,0,0,0,0,0,0,0,0,0,0,0,0,0,0,0,0,0,0,0,0,0,0,0,0,0,0,0,0,0,0,0,0,0,0,0,0,0,0,0,0,0,0,0,0,0,0,0,0,0,0,0,0,0,0,0,0,0,0,0,0,0,0,0,0,0,0,0,0,0,0,0.669302,0,0,0,0,0,0,0,0,0.213124,0.00679957,-0.800401,0,0,0,0,0,0,0,0,0,0,0,0,0,0,0,0,0.0361022,0,0,0,0,0,0,0,0,0,0,0,0,0,0,0,0,0,0,0,0,0,0,0,0,0,0,0,0,0,0,0,0,0,0,0,0,0,0,0,0,0,0,0,0,0,0,0,0,0,0,0,0,0,0,0,0,0,0,0,0,0,0
AlCr0.5NbTiV,5.6,A,S,BCC,11,1,600,1005,178.2,2.41,,0,1,0,0,0,300,0.0001,1,,25,,0,1200,24,100,0,,,,Al1 Cr0.5 Nb1 Ti1 V1,0,0,0,0,0,0,0,0,0,0,0,0,0.222222,0,0,0,0,0,0,0,0,0.222222,0.222222,0.111111,0,0,0,0,0,0,0,0,0,0,0,0,0,0,0,0,0.222222,0,0,0,0,0,0,0,0,0,0,0,0,0,0,0,0,0,0,0,0,0,0,0,0,0,0,0,0,0,0,0,0,0,0,0,0,0,0,0,0,0,0,0,0,0,0,0,0,0,0,0,0,0,0,0,0,0,0,0,0,0,0,1.68691,0.044687,0.0131452,-15.4074,1977.22,0.0987654,2750,5.16018,0.0234966,131.111,10,87.8571,311.111,4.44444,1689.17,0,0,0,0,0,0,0,0,0,0,0,0,-0.027436,0,0,0,0,0,0,0,0,-0.0507739,0.0625483,0.0861951,0,0,0,0,0,0,0,0,0,0,0,0,0,0,0,0,-0.027436,0,0,0,0,0,0,0,0,0,0,0,0,0,0,0,0,0,0,0,0,0,0,0,0,0,0,0,0,0,0,0,0,0,0,0,0,0,0,0,0,0,0,0,0,0,0,0,0,0,0,0,0,0,0,0,0,0,0,0,0,0,0,0,0,0,0,0,0,0,0,0,0,0,0,0.559703,0,0,0,0,0,0,0,0,0.0936183,-0.114192,-0.908675,0,0,0,0,0,0,0,0,0,0,0,0,0,0,0,0,-0.0847924,0,0,0,0,0,0,0,0,0,0,0,0,0,0,0,0,0,0,0,0,0,0,0,0,0,0,0,0,0,0,0,0,0,0,0,0,0,0,0,0,0,0,0,0,0,0,0,0,0,0,0,0,0,0,0,0,0,0,0,0,0,0
AlCrNbTiV,5.8,A,M,BCC+Laves,11,1,800,860,149.4,41.65,,0,1,0,0,0,150,0.0001,1,,25,,0,1200,24,100,0,,,,Al1 Cr1 Nb1 Ti1 V1,0,0,0,0,0,0,0,0,0,0,0,0,0.2,0,0,0,0,0,0,0,0,0.2,0.2,0.2,0,0,0,0,0,0,0,0,0,0,0,0,0,0,0,0,0.2,0,0,0,0,0,0,0,0,0,0,0,0,0,0,0,0,0,0,0,0,0,0,0,0,0,0,0,0,0,0,0,0,0,0,0,0,0,0,0,0,0,0,0,0,0,0,0,0,0,0,0,0,0,0,0,0,0,0,0,0,0,0,1.83573,0.0483231,0.0133809,-14.56,1997.494,0.08,2750,5.15852,0.02468835,150,10,97.5,360,4.6,2257.29,0,0,0,0,0,0,0,0,0,0,0,0,-0.036056,0,0,0,0,0,0,0,0,-0.0593886,0.053925,0.0775756,0,0,0,0,0,0,0,0,0,0,0,0,0,0,0,0,-0.036056,0,0,0,0,0,0,0,0,0,0,0,0,0,0,0,0,0,0,0,0,0,0,0,0,0,0,0,0,0,0,0,0,0,0,0,0,0,0,0,0,0,0,0,0,0,0,0,0,0,0,0,0,0,0,0,0,0,0,0,0,0,0,0,0,0,0,0,0,0,0,0,0,0,0,0.640703,0,0,0,0,0,0,0,0,0.185945,-0.0189587,-0.817808,0,0,0,0,0,0,0,0,0,0,0,0,0,0,0,0,0.0101182,0,0,0,0,0,0,0,0,0,0,0,0,0,0,0,0,0,0,0,0,0,0,0,0,0,0,0,0,0,0,0,0,0,0,0,0,0,0,0,0,0,0,0,0,0,0,0,0,0,0,0,0,0,0,0,0,0,0,0,0,0,0
AlCrMoNbTi,6.6,A,M,BCC+unknown,12,1,1200,105,16,,,0,1,0,0,0,250,0.001,1,,25,,0,1300,20,4.2,0,,,,Al1 Cr1 Mo1 Nb1 Ti1,0,0,0,0,0,0,0,0,0,0,0,0,0.2,0,0,0,0,0,0,0,0,0.2,0,0.2,0,0,0,0,0,0,0,0,0,0,0,0,0,0,0,0,0.2,0.2,0,0,0,0,0,0,0,0,0,0,0,0,0,0,0,0,0,0,0,0,0,0,0,0,0,0,0,0,0,0,0,0,0,0,0,0,0,0,0,0,0,0,0,0,0,0,0,0,0,0,0,0,0,0,0,0,0,0,0,0,0,2.10561,0.0435075,0.0133809,-13.6,2140.094,0.08,2896,5.01347,0.131995,194,10,125,410,4.8,1889.03,0,0,0,0,0,0,0,0,0,0,0,0,-0.0293463,0,0,0,0,0,0,0,0,-0.0526842,0,0.0842902,0,0,0,0,0,0,0,0,0,0,0,0,0,0,0,0,-0.0293463,0.0270866,0,0,0,0,0,0,0,0,0,0,0,0,0,0,0,0,0,0,0,0,0,0,0,0,0,0,0,0,0,0,0,0,0,0,0,0,0,0,0,0,0,0,0,0,0,0,0,0,0,0,0,0,0,0,0,0,0,0,0,0,0,0,0,0,0,0,0,0,0,0,0,0,0,0.449537,0,0,0,0,0,0,0,0,-0.004263409,0,-0.955617,0,0,0,0,0,0,0,0,0,0,0,0,0,0,0,0,-0.175324,0.685668,0,0,0,0,0,0,0,0,0,0,0,0,0,0,0,0,0,0,0,0,0,0,0,0,0,0,0,0,0,0,0,0,0,0,0,0,0,0,0,0,0,0,0,0,0,0,0,0,0,0,0,0,0,0,0,0,0,0,0,0,0
AlCrMoNbTi,6.6,A,s,BCC,13,1,800,875,133.2,,,0,1,0,0,0,,0.001,1,,25,,0,1300,20,4.2,0,,,,Al1 Cr1 Mo1 Nb1 Ti1,0,0,0,0,0,0,0,0,0,0,0,0,0.2,0,0,0,0,0,0,0,0,0.2,0,0.2,0,0,0,0,0,0,0,0,0,0,0,0,0,0,0,0,0.2,0.2,0,0,0,0,0,0,0,0,0,0,0,0,0,0,0,0,0,0,0,0,0,0,0,0,0,0,0,0,0,0,0,0,0,0,0,0,0,0,0,0,0,0,0,0,0,0,0,0,0,0,0,0,0,0,0,0,0,0,0,0,0,2.10561,0.0435075,0.0133809,-13.6,2140.094,0.08,2896,5.01347,0.131995,194,10,125,410,4.8,1889.03,0,0,0,0,0,0,0,0,0,0,0,0,-0.0293463,0,0,0,0,0,0,0,0,-0.0526842,0,0.0842902,0,0,0,0,0,0,0,0,0,0,0,0,0,0,0,0,-0.0293463,0.0270866,0,0,0,0,0,0,0,0,0,0,0,0,0,0,0,0,0,0,0,0,0,0,0,0,0,0,0,0,0,0,0,0,0,0,0,0,0,0,0,0,0,0,0,0,0,0,0,0,0,0,0,0,0,0,0,0,0,0,0,0,0,0,0,0,0,0,0,0,0,0,0,0,0,0.449537,0,0,0,0,0,0,0,0,-0.004263409,0,-0.955617,0,0,0,0,0,0,0,0,0,0,0,0,0,0,0,0,-0.175324,0.685668,0,0,0,0,0,0,0,0,0,0,0,0,0,0,0,0,0,0,0,0,0,0,0,0,0,0,0,0,0,0,0,0,0,0,0,0,0,0,0,0,0,0,0,0,0,0,0,0,0,0,0,0,0,0,0,0,0,0,0,0,0
AlMoNbTi,6.5,A,s,BCC,13,1,1200,200,31,,,0,1,0,0,0,,0.001,1,,25,,0,1500,20,4.2,0,,,,Al1 Mo1 Nb1 Ti1,0,0,0,0,0,0,0,0,0,0,0,0,0.25,0,0,0,0,0,0,0,0,0.25,0,0,0,0,0,0,0,0,0,0,0,0,0,0,0,0,0,0,0.25,0.25,0,0,0,0,0,0,0,0,0,0,0,0,0,0,0,0,0,0,0,0,0,0,0,0,0,0,0,0,0,0,0,0,0,0,0,0,0,0,0,0,0,0,0,0,0,0,0,0,0,0,0,0,0,0,0,0,0,0,0,0,0,1.6099,0.0258749,0.0115257,-15.25,2130.12,0.125,2896,4.69929,0.145375,162.5,10,111.667,312.5,4.5,793.983,0,0,0,0,0,0,0,0,0,0,0,0,-0.008273803,0,0,0,0,0,0,0,0,-0.031625,0,0,0,0,0,0,0,0,0,0,0,0,0,0,0,0,0,0,-0.008273803,0.0481726,0,0,0,0,0,0,0,0,0,0,0,0,0,0,0,0,0,0,0,0,0,0,0,0,0,0,0,0,0,0,0,0,0,0,0,0,0,0,0,0,0,0,0,0,0,0,0,0,0,0,0,0,0,0,0,0,0,0,0,0,0,0,0,0,0,0,0,0,0,0,0,0,0,0.219496,0,0,0,0,0,0,0,0,-0.259551,0,0,0,0,0,0,0,0,0,0,0,0,0,0,0,0,0,0,-0.435233,0.475288,0,0,0,0,0,0,0,0,0,0,0,0,0,0,0,0,0,0,0,0,0,0,0,0,0,0,0,0,0,0,0,0,0,0,0,0,0,0,0,0,0,0,0,0,0,0,0,0,0,0,0,0,0,0,0,0,0,0,0,0,0
AlMo0.5NbTa0.5TiZr,7.1,HIP+A,M,BCC+B2,14,1,800,1597,223.4,,,1,1,0,0,0,75,0.001,1,,1400,207,2,1400,24,10,0,,,,Al1 Mo0.5 Nb1 Ta0.5 Ti1 Zr1,0,0,0,0,0,0,0,0,0,0,0,0,0.2,0,0,0,0,0,0,0,0,0.2,0,0,0,0,0,0,0,0,0,0,0,0,0,0,0,0,0,0.2,0.2,0.1,0,0,0,0,0,0,0,0,0,0,0,0,0,0,0,0,0,0,0,0,0,0,0,0,0,0,0,0,0,0,0.1,0,0,0,0,0,0,0,0,0,0,0,0,0,0,0,0,0,0,0,0,0,0,0,0,0,0,0,0,0,0,1.87199,0.0500471,0.0145334,-16.84,2169.094,0.16,3290,5.01713,0.137556,159,10,103.125,319,5.7,1187.97,0,0,0,0,0,0,0,0,0,0,0,0,0.0242736,0,0,0,0,0,0,0,0,0.000931311,0,0,0,0,0,0,0,0,0,0,0,0,0,0,0,0,0,-0.10195,0.0242736,0.08066974,0,0,0,0,0,0,0,0,0,0,0,0,0,0,0,0,0,0,0,0,0,0,0,0,0,0,0,0,0,0,0.0242736,0,0,0,0,0,0,0,0,0,0,0,0,0,0,0,0,0,0,0,0,0,0,0,0,0,0,0,0,0,0,0,0,0,0,0,0,0,0,0,0,0,0,0.397386,0,0,0,0,0,0,0,0,-0.08112206,0,0,0,0,0,0,0,0,0,0,0,0,0,0,0,0,0,-0.143153,-0.260734,0.646224,0,0,0,0,0,0,0,0,0,0,0,0,0,0,0,0,0,0,0,0,0,0,0,0,0,0,0,0,0,0,-0.470977,0,0,0,0,0,0,0,0,0,0,0,0,0,0,0,0,0,0,0,0,0,0,0,0,0,0,0,0,0,0
AlNbTiV,5.5,A,s,B2,16,1,800,560,101.9,,,0,1,0,0,0,,0.0001,1,,25,,0,1200,24,10,0,,,,Al1 Nb1 Ti1 V1,0,0,0,0,0,0,0,0,0,0,0,0,0.25,0,0,0,0,0,0,0,0,0.25,0.25,0,0,0,0,0,0,0,0,0,0,0,0,0,0,0,0,0,0.25,0,0,0,0,0,0,0,0,0,0,0,0,0,0,0,0,0,0,0,0,0,0,0,0,0,0,0,0,0,0,0,0,0,0,0,0,0,0,0,0,0,0,0,0,0,0,0,0,0,0,0,0,0,0,0,0,0,0,0,0,0,0,1.3844,0.03786198,0.0115257,-16.25,1951.87,0.125,2750,4.8139,0.0210289,107.5,10,75,250,4.25,1284.71,0,0,0,0,0,0,0,0,0,0,0,0,-0.0166609,0,0,0,0,0,0,0,0,-0.0400055,0.0733273,0,0,0,0,0,0,0,0,0,0,0,0,0,0,0,0,0,-0.0166609,0,0,0,0,0,0,0,0,0,0,0,0,0,0,0,0,0,0,0,0,0,0,0,0,0,0,0,0,0,0,0,0,0,0,0,0,0,0,0,0,0,0,0,0,0,0,0,0,0,0,0,0,0,0,0,0,0,0,0,0,0,0,0,0,0,0,0,0,0,0,0,0,0,0,0.458454,0,0,0,0,0,0,0,0,-0.0217903,-0.233233,0,0,0,0,0,0,0,0,0,0,0,0,0,0,0,0,0,-0.203431,0,0,0,0,0,0,0,0,0,0,0,0,0,0,0,0,0,0,0,0,0,0,0,0,0,0,0,0,0,0,0,0,0,0,0,0,0,0,0,0,0,0,0,0,0,0,0,0,0,0,0,0,0,0,0,0,0,0,0,0,0,0
AlNbTiVZr0.1,5.5,A,M,B2+Al3Zr5,16,1,600,975,176.3,5.1,,0,1,0,0,0,,0.0001,1,,25,,0,1200,24,10,0,,,,Al1 Nb1 Ti1 V1 Zr0.1,0,0,0,0,0,0,0,0,0,0,0,0,0.243902,0,0,0,0,0,0,0,0,0.243902,0.243902,0,0,0,0,0,0,0,0,0,0,0,0,0,0,0,0,0.0243902,0.243902,0,0,0,0,0,0,0,0,0,0,0,0,0,0,0,0,0,0,0,0,0,0,0,0,0,0,0,0,0,0,0,0,0,0,0,0,0,0,0,0,0,0,0,0,0,0,0,0,0,0,0,0,0,0,0,0,0,0,0,0,0,0,1.4449,0.0426458,0.0121979,-16.514,1956.16,0.1189768,2750,5.01998,0.0331232,110.732,10,76.6129,250.732,4.2439,1240.24,0,0,0,0,0,0,0,0,0,0,0,0,-0.01317557,0,0,0,0,0,0,0,0,-0.036519,0.0768011,0,0,0,0,0,0,0,0,0,0,0,0,0,0,0,0,-0.13931,-0.01317557,0,0,0,0,0,0,0,0,0,0,0,0,0,0,0,0,0,0,0,0,0,0,0,0,0,0,0,0,0,0,0,0,0,0,0,0,0,0,0,0,0,0,0,0,0,0,0,0,0,0,0,0,0,0,0,0,0,0,0,0,0,0,0,0,0,0,0,0,0,0,0,0,0,0,0.460614,0,0,0,0,0,0,0,0,-0.0197061,-0.231244,0,0,0,0,0,0,0,0,0,0,0,0,0,0,0,0,-0.08238309,-0.201426,0,0,0,0,0,0,0,0,0,0,0,0,0,0,0,0,0,0,0,0,0,0,0,0,0,0,0,0,0,0,0,0,0,0,0,0,0,0,0,0,0,0,0,0,0,0,0,0,0,0,0,0,0,0,0,0,0,0,0,0,0,0
AlNbTiVZr1.5,5.8,A,M,B2+Al3Zr5+Laves,16,1,25,1535,262.6,0.4,,0,1,0,0,0,,0.0001,1,,25,,0,1200,24,10,0,,,,Al1 Nb1 Ti1 V1 Zr1.5,0,0,0,0,0,0,0,0,0,0,0,0,0.181818,0,0,0,0,0,0,0,0,0.181818,0.181818,0,0,0,0,0,0,0,0,0,0,0,0,0,0,0,0,0.272727,0.181818,0,0,0,0,0,0,0,0,0,0,0,0,0,0,0,0,0,0,0,0,0,0,0,0,0,0,0,0,0,0,0,0,0,0,0,0,0,0,0,0,0,0,0,0,0,0,0,0,0,0,0,0,0,0,0,0,0,0,0,0,0,0,1.5302,0.0657324,0.0132539,-17.3223,1999.9,0.198347,2750,5.39616,0.0797501,143.636,10,91.6667,258.182,4.18182,2120.37,0,0,0,0,0,0,0,0,0,0,0,0,0.0223114,0,0,0,0,0,0,0,0,-0.001020071,0.112171,0,0,0,0,0,0,0,0,0,0,0,0,0,0,0,0,-0.103849,0.0223114,0,0,0,0,0,0,0,0,0,0,0,0,0,0,0,0,0,0,0,0,0,0,0,0,0,0,0,0,0,0,0,0,0,0,0,0,0,0,0,0,0,0,0,0,0,0,0,0,0,0,0,0,0,0,0,0,0,0,0,0,0,0,0,0,0,0,0,0,0,0,0,0,0,0,0.482613,0,0,0,0,0,0,0,0,0.001514958,-0.210992,0,0,0,0,0,0,0,0,0,0,0,0,0,0,0,0,-0.0614128,-0.181017,0,0,0,0,0,0,0,0,0,0,0,0,0,0,0,0,0,0,0,0,0,0,0,0,0,0,0,0,0,0,0,0,0,0,0,0,0,0,0,0,0,0,0,0,0,0,0,0,0,0,0,0,0,0,0,0,0,0,0,0,0,0
CoCrMoNbTi,7.8,AC,M,BCC+Laves,18,1,25,1096.8,,3.88,844,0,0,0,0,0,9.8,0.001,1,,25,,0,25,0,10,0,,,,Co1 Cr1 Mo1 Nb1 Ti1,0,0,0,0,0,0,0,0,0,0,0,0,0,0,0,0,0,0,0,0,0,0.2,0,0.2,0,0,0.2,0,0,0,0,0,0,0,0,0,0,0,0,0,0.2,0.2,0,0,0,0,0,0,0,0,0,0,0,0,0,0,0,0,0,0,0,0,0,0,0,0,0,0,0,0,0,0,0,0,0,0,0,0,0,0,0,0,0,0,0,0,0,0,0,0,0,0,0,0,0,0,0,0,0,0,0,0,0,2.29685,0.059613,0.0133809,-13.44,2307,0.08,2896,5.25957,0.128502,244,120,197.5,420,6,3324.9,0,0,0,0,0,0,0,0,0,0,0,0,0,0,0,0,0,0,0,0,0,-0.0838519,0,0.053067,0,0,0.0954661,0,0,0,0,0,0,0,0,0,0,0,0,0,-0.0605398,-0.004141494,0,0,0,0,0,0,0,0,0,0,0,0,0,0,0,0,0,0,0,0,0,0,0,0,0,0,0,0,0,0,0,0,0,0,0,0,0,0,0,0,0,0,0,0,0,0,0,0,0,0,0,0,0,0,0,0,0,0,0,0,0,0,0,0,0,0,0,0,0,0,0,0,0,0,0,0,0,0,0,0,0,0,0.24493,0,-0.742478,0,0,-0.478582,0,0,0,0,0,0,0,0,0,0,0,0,0,0.0748007,0.901329,0,0,0,0,0,0,0,0,0,0,0,0,0,0,0,0,0,0,0,0,0,0,0,0,0,0,0,0,0,0,0,0,0,0,0,0,0,0,0,0,0,0,0,0,0,0,0,0,0,0,0,0,0,0,0,0,0,0,0,0,0
CrHfNbTiZr,8.2,A,M,BCC+Laves,19,1,25,1328,161.3,4.3,,0,1,0,0,0,,0.0005,1,,25,,0,900,0.167,10,0,,,,Cr1 Hf1 Nb1 Ti1 Zr1,0,0,0,0,0,0,0,0,0,0,0,0,0,0,0,0,0,0,0,0,0,0.2,0,0.2,0,0,0,0,0,0,0,0,0,0,0,0,0,0,0,0.2,0.2,0,0,0,0,0,0,0,0,0,0,0,0,0,0,0,0,0,0,0,0,0,0,0,0,0,0,0,0,0,0,0.2,0,0,0,0,0,0,0,0,0,0,0,0,0,0,0,0,0,0,0,0,0,0,0,0,0,0,0,0,0,0,0,7.69734,0.0757299,0.0133809,-4,2301,0.16,2750,4.30355,0.0975751,206,100,166.25,392,7.4,3376.89,0,0,0,0,0,0,0,0,0,0,0,0,0,0,0,0,0,0,0,0,0,0.006295917,0,0.14299,0,0,0,0,0,0,0,0,0,0,0,0,0,0,0,-0.0965052,0.0296168,0,0,0,0,0,0,0,0,0,0,0,0,0,0,0,0,0,0,0,0,0,0,0,0,0,0,0,0,0,0,-0.0823974,0,0,0,0,0,0,0,0,0,0,0,0,0,0,0,0,0,0,0,0,0,0,0,0,0,0,0,0,0,0,0,0,0,0,0,0,0,0,0,0,0,0,0,0,0,0,0,0,0,0,0,0,0.212939,0,-0.803403,0,0,0,0,0,0,0,0,0,0,0,0,0,0,0,0.151935,0.0352248,0,0,0,0,0,0,0,0,0,0,0,0,0,0,0,0,0,0,0,0,0,0,0,0,0,0,0,0,0,0,0.403305,0,0,0,0,0,0,0,0,0,0,0,0,0,0,0,0,0,0,0,0,0,0,0,0,0,0,0,0,0,0,0
CrMo0.5NbTa0.5TiZr,8,HIP+A,M,2 BCC+Laves,20,1,25,1595,199.5,3.63,539.2,1,1,0,0,0,,0.001,1,,1450,207,3,1450,3,20,0,,,,Cr1 Mo0.5 Nb1 Ta0.5 Ti1 Zr1,0,0,0,0,0,0,0,0,0,0,0,0,0,0,0,0,0,0,0,0,0,0.2,0,0.2,0,0,0,0,0,0,0,0,0,0,0,0,0,0,0,0.2,0.2,0.1,0,0,0,0,0,0,0,0,0,0,0,0,0,0,0,0,0,0,0,0,0,0,0,0,0,0,0,0,0,0,0.1,0,0,0,0,0,0,0,0,0,0,0,0,0,0,0,0,0,0,0,0,0,0,0,0,0,0,0,0,0,0,7.14383,0.07035876,0.0145334,-4.92,2418.4,0.16,3290,4.15646,0.138071,221,80,158.333,461,6.3,2831.06,0,0,0,0,0,0,0,0,0,0,0,0,0,0,0,0,0,0,0,0,0,-0.0217816,0,0.11504,0,0,0,0,0,0,0,0,0,0,0,0,0,0,0,-0.124542,0.001546371,0.057928,0,0,0,0,0,0,0,0,0,0,0,0,0,0,0,0,0,0,0,0,0,0,0,0,0,0,0,0,0,0,0.001546371,0,0,0,0,0,0,0,0,0,0,0,0,0,0,0,0,0,0,0,0,0,0,0,0,0,0,0,0,0,0,0,0,0,0,0,0,0,0,0,0,0,0,0,0,0,0,0,0,0,0,0,0.2196,0,-0.788986,0,0,0,0,0,0,0,0,0,0,0,0,0,0,0,0.159369,0.0440569,0.897985,0,0,0,0,0,0,0,0,0,0,0,0,0,0,0,0,0,0,0,0,0,0,0,0,0,0,0,0,0,0,-0.166064,0,0,0,0,0,0,0,0,0,0,0,0,0,0,0,0,0,0,0,0,0,0,0,0,0,0,0,0,0,0
CrNbTiVZr,6.6,HIP+A,M,BCC+Laves,21,1,600,1230,187.4,,,1,1,0,0,0,,0.001,1,,1200,207,2,1200,24,10,0,,,,Cr1 Nb1 Ti1 V1 Zr1,0,0,0,0,0,0,0,0,0,0,0,0,0,0,0,0,0,0,0,0,0,0.2,0.2,0.2,0,0,0,0,0,0,0,0,0,0,0,0,0,0,0,0.2,0.2,0,0,0,0,0,0,0,0,0,0,0,0,0,0,0,0,0,0,0,0,0,0,0,0,0,0,0,0,0,0,0,0,0,0,0,0,0,0,0,0,0,0,0,0,0,0,0,0,0,0,0,0,0,0,0,0,0,0,0,0,0,0,6.44935,0.0773447,0.0133809,-4.64,2236.4,0.16,2750,4.27579,0.0759544,196,50,141.25,398,4.8,3553.99,0,0,0,0,0,0,0,0,0,0,0,0,0,0,0,0,0,0,0,0,0,-0.0341291,0.0790757,0.102688,0,0,0,0,0,0,0,0,0,0,0,0,0,0,0,-0.136826,-0.0108085,0,0,0,0,0,0,0,0,0,0,0,0,0,0,0,0,0,0,0,0,0,0,0,0,0,0,0,0,0,0,0,0,0,0,0,0,0,0,0,0,0,0,0,0,0,0,0,0,0,0,0,0,0,0,0,0,0,0,0,0,0,0,0,0,0,0,0,0,0,0,0,0,0,0,0,0,0,0,0,0,0,0,0,0.296022,0.0881952,-0.736982,0,0,0,0,0,0,0,0,0,0,0,0,0,0,0,0.234968,0.117797,0,0,0,0,0,0,0,0,0,0,0,0,0,0,0,0,0,0,0,0,0,0,0,0,0,0,0,0,0,0,0,0,0,0,0,0,0,0,0,0,0,0,0,0,0,0,0,0,0,0,0,0,0,0,0,0,0,0,0,0,0,0
NbTiV2Zr,6.4,HIP+A,M,3 BCC,21,1,800,240,37.5,46.79,,1,1,0,0,0,550,0.001,1,,1200,207,2,1200,24,10,0,,,,Nb1 Ti1 V2 Zr1,0,0,0,0,0,0,0,0,0,0,0,0,0,0,0,0,0,0,0,0,0,0.2,0.4,0,0,0,0,0,0,0,0,0,0,0,0,0,0,0,0,0.2,0.2,0,0,0,0,0,0,0,0,0,0,0,0,0,0,0,0,0,0,0,0,0,0,0,0,0,0,0,0,0,0,0,0,0,0,0,0,0,0,0,0,0,0,0,0,0,0,0,0,0,0,0,0,0,0,0,0,0,0,0,0,0,0,19.3566,0.07282331,0.0110757,-1.28,2237,0.16,2750,3.22325,0.0730203,142,50,126.667,314,4.6,3144.88,0,0,0,0,0,0,0,0,0,0,0,0,0,0,0,0,0,0,0,0,0,-0.0294068,0.0838126,0,0,0,0,0,0,0,0,0,0,0,0,0,0,0,0,-0.132137,-0.006081195,0,0,0,0,0,0,0,0,0,0,0,0,0,0,0,0,0,0,0,0,0,0,0,0,0,0,0,0,0,0,0,0,0,0,0,0,0,0,0,0,0,0,0,0,0,0,0,0,0,0,0,0,0,0,0,0,0,0,0,0,0,0,0,0,0,0,0,0,0,0,0,0,0,0,0,0,0,0,0,0,0,0,0,0.135632,-0.0794325,0,0,0,0,0,0,0,0,0,0,0,0,0,0,0,0,0.07218962,-0.0489563,0,0,0,0,0,0,0,0,0,0,0,0,0,0,0,0,0,0,0,0,0,0,0,0,0,0,0,0,0,0,0,0,0,0,0,0,0,0,0,0,0,0,0,0,0,0,0,0,0,0,0,0,0,0,0,0,0,0,0,0,0,0
CrTaTi0.17VW,12.6,SPS,M,BCC+Laves,22,1,1200,750,59.4,,,0,0,0,1,0,3.32,0.001,0,,25,,0,25,0,10,0,1500,50,15,Cr1 Ta1 Ti0.17 V1 W1,0,0,0,0,0,0,0,0,0,0,0,0,0,0,0,0,0,0,0,0,0,0.0407674,0.239808,0.239808,0,0,0,0,0,0,0,0,0,0,0,0,0,0,0,0,0,0,0,0,0,0,0,0,0,0,0,0,0,0,0,0,0,0,0,0,0,0,0,0,0,0,0,0,0,0,0,0,0.239808,0.239808,0,0,0,0,0,0,0,0,0,0,0,0,0,0,0,0,0,0,0,0,0,0,0,0,0,0,0,0,0,7.83494,0.0408609,0.0124723,-4.45802,2800.47,0.05750795,3695,3.67947,0.18716,309.952,50,220.978,712.782,12.1535,3623.08,0,0,0,0,0,0,0,0,0,0,0,0,0,0,0,0,0,0,0,0,0,-0.0827677,0.0305515,0.0542182,0,0,0,0,0,0,0,0,0,0,0,0,0,0,0,0,0,0,0,0,0,0,0,0,0,0,0,0,0,0,0,0,0,0,0,0,0,0,0,0,0,0,0,0,0,0,0,0,-0.05944366,-0.0112556,0,0,0,0,0,0,0,0,0,0,0,0,0,0,0,0,0,0,0,0,0,0,0,0,0,0,0,0,0,0,0,0,0,0,0,0,0,0,0,0,0,0,0,0,0,0,0,0,0,0,0.718098,0.52947,-0.289382,0,0,0,0,0,0,0,0,0,0,0,0,0,0,0,0,0,0,0,0,0,0,0,0,0,0,0,0,0,0,0,0,0,0,0,0,0,0,0,0,0,0,0,0,0,0,0,0,0.356363,-0.718527,0,0,0,0,0,0,0,0,0,0,0,0,0,0,0,0,0,0,0,0,0,0,0,0,0,0,0,0,0
Hf0.4Nb1.54Ta1.54Ti0.89Zr0.64,10.4,AC,S,BCC,23,1,200,650,62.6,7.16,,0,0,0,0,0,750,0.0001,1,,25,,0,25,0,10,0,,,,Hf0.4 Nb1.54 Ta1.54 Ti0.89 Zr0.64,0,0,0,0,0,0,0,0,0,0,0,0,0,0,0,0,0,0,0,0,0,0.177645,0,0,0,0,0,0,0,0,0,0,0,0,0,0,0,0,0,0.127745,0.307385,0,0,0,0,0,0,0,0,0,0,0,0,0,0,0,0,0,0,0,0,0,0,0,0,0,0,0,0,0,0,0.0798403,0.307385,0,0,0,0,0,0,0,0,0,0,0,0,0,0,0,0,0,0,0,0,0,0,0,0,0,0,0,0,0,0,13.6243,0.0437224,0.0124449,2.4419,2673.34,0.157067,3290,3.19889,0.0674662,144.531,80,126.585,435.589,10.0359,1204.83,0,0,0,0,0,0,0,0,0,0,0,0,0,0,0,0,0,0,0,0,0,0.005882426,0,0,0,0,0,0,0,0,0,0,0,0,0,0,0,0,0,-0.0970239,0.0292275,0,0,0,0,0,0,0,0,0,0,0,0,0,0,0,0,0,0,0,0,0,0,0,0,0,0,0,0,0,0,-0.0829019,0.0292275,0,0,0,0,0,0,0,0,0,0,0,0,0,0,0,0,0,0,0,0,0,0,0,0,0,0,0,0,0,0,0,0,0,0,0,0,0,0,0,0,0,0,0,0,0,0,0,0,0,0,0,0.172371,0,0,0,0,0,0,0,0,0,0,0,0,0,0,0,0,0,0.109376,-0.01107678,0,0,0,0,0,0,0,0,0,0,0,0,0,0,0,0,0,0,0,0,0,0,0,0,0,0,0,0,0,0,0.369011,-0.229842,0,0,0,0,0,0,0,0,0,0,0,0,0,0,0,0,0,0,0,0,0,0,0,0,0,0,0,0,0,0
Hf0.5Mo0.5NbSi0.9TiZr,6.8,AC,M,BCC+M5Si3,24,1,25,1650,241.5,2.57,638.3,0,0,0,0,0,,0.001,1,,25,,0,25,0,10,0,,,,Hf0.5 Mo0.5 Nb1 Si0.9 Ti1 Zr1,0,0,0,0,0,0,0,0,0,0,0,0,0,0.183673,0,0,0,0,0,0,0,0.204082,0,0,0,0,0,0,0,0,0,0,0,0,0,0,0,0,0,0.204082,0.204082,0.102041,0,0,0,0,0,0,0,0,0,0,0,0,0,0,0,0,0,0,0,0,0,0,0,0,0,0,0,0,0,0.102041,0,0,0,0,0,0,0,0,0,0,0,0,0,0,0,0,0,0,0,0,0,0,0,0,0,0,0,0,0,0,0,0.830837,0.119533,0.01454988,-39.4502,2252.71,0.166597,2896,8.48614,0.167512,178.087,86.25,142.5,320.408,5.83673,4338.78,0,0,0,0,0,0,0,0,0,0,0,0,0,0.274887,0,0,0,0,0,0,0,-0.0409524,0,0,0,0,0,0,0,0,0,0,0,0,0,0,0,0,0,-0.143361,-0.0176937,0.03853685,0,0,0,0,0,0,0,0,0,0,0,0,0,0,0,0,0,0,0,0,0,0,0,0,0,0,0,0,0,-0.129319,0,0,0,0,0,0,0,0,0,0,0,0,0,0,0,0,0,0,0,0,0,0,0,0,0,0,0,0,0,0,0,0,0,0,0,0,0,0,0,0,0,0,0,0,-0.411765,0,0,0,0,0,0,0,0.03931061,0,0,0,0,0,0,0,0,0,0,0,0,0,0,0,0,0,-0.0230574,-0.141777,0.756938,0,0,0,0,0,0,0,0,0,0,0,0,0,0,0,0,0,0,0,0,0,0,0,0,0,0,0,0,0,0.235288,0,0,0,0,0,0,0,0,0,0,0,0,0,0,0,0,0,0,0,0,0,0,0,0,0,0,0,0,0,0,0
Hf0.75NbTa0.5Ti1.5Zr1.25,8.4,CR,S,BCC,26,1,72,1020,121.3,,,0,0,1,0,0,,0.0003,1,90,25,,0,25,0,10,40,,,,Hf0.75 Nb1 Ta0.5 Ti1.5 Zr1.25,0,0,0,0,0,0,0,0,0,0,0,0,0,0,0,0,0,0,0,0,0,0.3,0,0,0,0,0,0,0,0,0,0,0,0,0,0,0,0,0,0.25,0.2,0,0,0,0,0,0,0,0,0,0,0,0,0,0,0,0,0,0,0,0,0,0,0,0,0,0,0,0,0,0,0.15,0.1,0,0,0,0,0,0,0,0,0,0,0,0,0,0,0,0,0,0,0,0,0,0,0,0,0,0,0,0,0,0,12.8909,0.0488324,0.0128408,2.36,2369.2,0.2,3290,2.89906,0.08125721,182,80,136.667,323.5,7.8,1610.09,0,0,0,0,0,0,0,0,0,0,0,0,0,0,0,0,0,0,0,0,0,0.0320507,0,0,0,0,0,0,0,0,0,0,0,0,0,0,0,0,0,-0.0708763,0.0553853,0,0,0,0,0,0,0,0,0,0,0,0,0,0,0,0,0,0,0,0,0,0,0,0,0,0,0,0,0,0,-0.0567449,0.0553853,0,0,0,0,0,0,0,0,0,0,0,0,0,0,0,0,0,0,0,0,0,0,0,0,0,0,0,0,0,0,0,0,0,0,0,0,0,0,0,0,0,0,0,0,0,0,0,0,0,0,0,0.0629441,0,0,0,0,0,0,0,0,0,0,0,0,0,0,0,0,0,-0.000390625,-0.121012,0,0,0,0,0,0,0,0,0,0,0,0,0,0,0,0,0,0,0,0,0,0,0,0,0,0,0,0,0,0,0.261759,-0.338471,0,0,0,0,0,0,0,0,0,0,0,0,0,0,0,0,0,0,0,0,0,0,0,0,0,0,0,0,0,0
Hf0.75NbTa0.5Ti1.5Zr1.25,8.4,CR+A,s,BCC,26,1,-103,1250,148.6,19.19,,0,1,1,0,0,,0.0003,1,90,25,,0,997,1,10,40,,,,Hf0.75 Nb1 Ta0.5 Ti1.5 Zr1.25,0,0,0,0,0,0,0,0,0,0,0,0,0,0,0,0,0,0,0,0,0,0.3,0,0,0,0,0,0,0,0,0,0,0,0,0,0,0,0,0,0.25,0.2,0,0,0,0,0,0,0,0,0,0,0,0,0,0,0,0,0,0,0,0,0,0,0,0,0,0,0,0,0,0,0.15,0.1,0,0,0,0,0,0,0,0,0,0,0,0,0,0,0,0,0,0,0,0,0,0,0,0,0,0,0,0,0,0,12.8909,0.0488324,0.0128408,2.36,2369.2,0.2,3290,2.89906,0.08125721,182,80,136.667,323.5,7.8,1610.09,0,0,0,0,0,0,0,0,0,0,0,0,0,0,0,0,0,0,0,0,0,0.0320507,0,0,0,0,0,0,0,0,0,0,0,0,0,0,0,0,0,-0.0708763,0.0553853,0,0,0,0,0,0,0,0,0,0,0,0,0,0,0,0,0,0,0,0,0,0,0,0,0,0,0,0,0,0,-0.0567449,0.0553853,0,0,0,0,0,0,0,0,0,0,0,0,0,0,0,0,0,0,0,0,0,0,0,0,0,0,0,0,0,0,0,0,0,0,0,0,0,0,0,0,0,0,0,0,0,0,0,0,0,0,0,0.0629441,0,0,0,0,0,0,0,0,0,0,0,0,0,0,0,0,0,-0.000390625,-0.121012,0,0,0,0,0,0,0,0,0,0,0,0,0,0,0,0,0,0,0,0,0,0,0,0,0,0,0,0,0,0,0.261759,-0.338471,0,0,0,0,0,0,0,0,0,0,0,0,0,0,0,0,0,0,0,0,0,0,0,0,0,0,0,0,0,0
Hf0.75NbTa0.5Ti1.5Zr1.25,8.4,CR+A,s,BCC,26,1,-268.8,2390,284.2,1.49,,0,1,1,0,0,,0.0003,1,90,25,,0,997,1,10,40,,,,Hf0.75 Nb1 Ta0.5 Ti1.5 Zr1.25,0,0,0,0,0,0,0,0,0,0,0,0,0,0,0,0,0,0,0,0,0,0.3,0,0,0,0,0,0,0,0,0,0,0,0,0,0,0,0,0,0.25,0.2,0,0,0,0,0,0,0,0,0,0,0,0,0,0,0,0,0,0,0,0,0,0,0,0,0,0,0,0,0,0,0.15,0.1,0,0,0,0,0,0,0,0,0,0,0,0,0,0,0,0,0,0,0,0,0,0,0,0,0,0,0,0,0,0,12.8909,0.0488324,0.0128408,2.36,2369.2,0.2,3290,2.89906,0.08125721,182,80,136.667,323.5,7.8,1610.09,0,0,0,0,0,0,0,0,0,0,0,0,0,0,0,0,0,0,0,0,0,0.0320507,0,0,0,0,0,0,0,0,0,0,0,0,0,0,0,0,0,-0.0708763,0.0553853,0,0,0,0,0,0,0,0,0,0,0,0,0,0,0,0,0,0,0,0,0,0,0,0,0,0,0,0,0,0,-0.0567449,0.0553853,0,0,0,0,0,0,0,0,0,0,0,0,0,0,0,0,0,0,0,0,0,0,0,0,0,0,0,0,0,0,0,0,0,0,0,0,0,0,0,0,0,0,0,0,0,0,0,0,0,0,0,0.0629441,0,0,0,0,0,0,0,0,0,0,0,0,0,0,0,0,0,-0.000390625,-0.121012,0,0,0,0,0,0,0,0,0,0,0,0,0,0,0,0,0,0,0,0,0,0,0,0,0,0,0,0,0,0,0.261759,-0.338471,0,0,0,0,0,0,0,0,0,0,0,0,0,0,0,0,0,0,0,0,0,0,0,0,0,0,0,0,0,0
HfNbTaTiZr,9.9,AC,s,BCC,27,1,25,1015,102.6,,335,0,0,0,0,0,,0.001,1,,25,,0,25,0,10,0,,,,Hf1 Nb1 Ta1 Ti1 Zr1,0,0,0,0,0,0,0,0,0,0,0,0,0,0,0,0,0,0,0,0,0,0.2,0,0,0,0,0,0,0,0,0,0,0,0,0,0,0,0,0,0.2,0.2,0,0,0,0,0,0,0,0,0,0,0,0,0,0,0,0,0,0,0,0,0,0,0,0,0,0,0,0,0,0,0.2,0.2,0,0,0,0,0,0,0,0,0,0,0,0,0,0,0,0,0,0,0,0,0,0,0,0,0,0,0,0,0,0,12.4117,0.0497103,0.0133809,2.72,2523,0.16,3290,3.21996,0.0813301,158,80,128.75,384,10,1664.59,0,0,0,0,0,0,0,0,0,0,0,0,0,0,0,0,0,0,0,0,0,0.0290088,0,0,0,0,0,0,0,0,0,0,0,0,0,0,0,0,0,-0.0739135,0.0523441,0,0,0,0,0,0,0,0,0,0,0,0,0,0,0,0,0,0,0,0,0,0,0,0,0,0,0,0,0,0,-0.0597835,0.0523441,0,0,0,0,0,0,0,0,0,0,0,0,0,0,0,0,0,0,0,0,0,0,0,0,0,0,0,0,0,0,0,0,0,0,0,0,0,0,0,0,0,0,0,0,0,0,0,0,0,0,0,0.0899122,0,0,0,0,0,0,0,0,0,0,0,0,0,0,0,0,0,0.0267824,-0.0935667,0,0,0,0,0,0,0,0,0,0,0,0,0,0,0,0,0,0,0,0,0,0,0,0,0,0,0,0,0,0,0.287817,-0.310945,0,0,0,0,0,0,0,0,0,0,0,0,0,0,0,0,0,0,0,0,0,0,0,0,0,0,0,0,0,0
HfMo0.5NbSi0.7TiV0.5,7.9,AC,M,BCC+M5Si3,28,1,25,2134,270.1,0.93,613,0,0,0,0,0,,0.001,0,,25,,0,25,0,10,0,,,,Hf1 Mo0.5 Nb1 Si0.7 Ti1 V0.5,0,0,0,0,0,0,0,0,0,0,0,0,0,0.148936,0,0,0,0,0,0,0,0.212766,0.106383,0,0,0,0,0,0,0,0,0,0,0,0,0,0,0,0,0,0.212766,0.106383,0,0,0,0,0,0,0,0,0,0,0,0,0,0,0,0,0,0,0,0,0,0,0,0,0,0,0,0,0,0.212766,0,0,0,0,0,0,0,0,0,0,0,0,0,0,0,0,0,0,0,0,0,0,0,0,0,0,0,0,0,0,0,1.08492,0.106202,0.0145342,-31.1182,2322.85,0.181077,2896,7.60986,0.157319,146.888,50,104.211,339.362,7.51064,3520.34,0,0,0,0,0,0,0,0,0,0,0,0,0,0.262563,0,0,0,0,0,0,0,-0.053739,0.0592857,0,0,0,0,0,0,0,0,0,0,0,0,0,0,0,0,0,-0.0304634,0.0258195,0,0,0,0,0,0,0,0,0,0,0,0,0,0,0,0,0,0,0,0,0,0,0,0,0,0,0,0,0,-0.142144,0,0,0,0,0,0,0,0,0,0,0,0,0,0,0,0,0,0,0,0,0,0,0,0,0,0,0,0,0,0,0,0,0,0,0,0,0,0,0,0,0,0,0,0,-0.440072,0,0,0,0,0,0,0,0.009465981,-0.200987,0,0,0,0,0,0,0,0,0,0,0,0,0,0,0,0,0,-0.171287,0.72969,0,0,0,0,0,0,0,0,0,0,0,0,0,0,0,0,0,0,0,0,0,0,0,0,0,0,0,0,0,0.20552,0,0,0,0,0,0,0,0,0,0,0,0,0,0,0,0,0,0,0,0,0,0,0,0,0,0,0,0,0,0,0
HfMoNbTaTiZr,9.9,AC,s,BCC,29,1,1200,556,55.9,,,0,0,0,0,0,,0.001,1,,25,,0,25,0,10,0,,,,Hf1 Mo1 Nb1 Ta1 Ti1 Zr1,0,0,0,0,0,0,0,0,0,0,0,0,0,0,0,0,0,0,0,0,0,0.166667,0,0,0,0,0,0,0,0,0,0,0,0,0,0,0,0,0,0.166667,0.166667,0.166667,0,0,0,0,0,0,0,0,0,0,0,0,0,0,0,0,0,0,0,0,0,0,0,0,0,0,0,0,0,0.166667,0.166667,0,0,0,0,0,0,0,0,0,0,0,0,0,0,0,0,0,0,0,0,0,0,0,0,0,0,0,0,0,0,43.3242,0.0580798,0.0148967,-0.888889,2585.17,0.111111,3290,4.10796,0.180951,176.667,80,138,425,9.33333,1602.36,0,0,0,0,0,0,0,0,0,0,0,0,0,0,0,0,0,0,0,0,0,0.0108762,0,0,0,0,0,0,0,0,0,0,0,0,0,0,0,0,0,-0.092,0.0342114,0.0905817,0,0,0,0,0,0,0,0,0,0,0,0,0,0,0,0,0,0,0,0,0,0,0,0,0,0,0,0,0,-0.0778808,0.0342114,0,0,0,0,0,0,0,0,0,0,0,0,0,0,0,0,0,0,0,0,0,0,0,0,0,0,0,0,0,0,0,0,0,0,0,0,0,0,0,0,0,0,0,0,0,0,0,0,0,0,0,-0.047758,0,0,0,0,0,0,0,0,0,0,0,0,0,0,0,0,0,-0.109754,-0.227416,0.67533,0,0,0,0,0,0,0,0,0,0,0,0,0,0,0,0,0,0,0,0,0,0,0,0,0,0,0,0,0,0.147896,-0.438298,0,0,0,0,0,0,0,0,0,0,0,0,0,0,0,0,0,0,0,0,0,0,0,0,0,0,0,0,0,0
HfMoNbTiZr,8.7,AC,s,BCC,30,1,25,1719,197.9,4.05,,0,0,0,0,0,,0.001,1,,25,,0,25,0,10,0,,,,Hf1 Mo1 Nb1 Ti1 Zr1,0,0,0,0,0,0,0,0,0,0,0,0,0,0,0,0,0,0,0,0,0,0.2,0,0,0,0,0,0,0,0,0,0,0,0,0,0,0,0,0,0.2,0.2,0.2,0,0,0,0,0,0,0,0,0,0,0,0,0,0,0,0,0,0,0,0,0,0,0,0,0,0,0,0,0,0.2,0,0,0,0,0,0,0,0,0,0,0,0,0,0,0,0,0,0,0,0,0,0,0,0,0,0,0,0,0,0,0,20.4409,0.0613232,0.0133809,-1.6,2444.2,0.16,2896,4.03377,0.195179,196,100,160,358,7.4,1803.79,0,0,0,0,0,0,0,0,0,0,0,0,0,0,0,0,0,0,0,0,0,0.0177227,0,0,0,0,0,0,0,0,0,0,0,0,0,0,0,0,0,-0.0851524,0.0410537,0.0974077,0,0,0,0,0,0,0,0,0,0,0,0,0,0,0,0,0,0,0,0,0,0,0,0,0,0,0,0,0,-0.0710317,0,0,0,0,0,0,0,0,0,0,0,0,0,0,0,0,0,0,0,0,0,0,0,0,0,0,0,0,0,0,0,0,0,0,0,0,0,0,0,0,0,0,0,0,0,0,0,0,0,0,0,0,-0.13766,0,0,0,0,0,0,0,0,0,0,0,0,0,0,0,0,0,-0.199667,-0.316971,0.595384,0,0,0,0,0,0,0,0,0,0,0,0,0,0,0,0,0,0,0,0,0,0,0,0,0,0,0,0,0,0.0589141,0,0,0,0,0,0,0,0,0,0,0,0,0,0,0,0,0,0,0,0,0,0,0,0,0,0,0,0,0,0,0
HfNb0.18Ta0.18Ti1.27Zr,8.5,CR+A,s,BCC,31,0,25,540,63.8,,,0,1,1,0,0,40,0.0001,1,,25,,0,900,0.5,10,60,,,,Hf1 Nb0.18 Ta0.18 Ti1.27 Zr1,0,0,0,0,0,0,0,0,0,0,0,0,0,0,0,0,0,0,0,0,0,0.349862,0,0,0,0,0,0,0,0,0,0,0,0,0,0,0,0,0,0.275482,0.0495868,0,0,0,0,0,0,0,0,0,0,0,0,0,0,0,0,0,0,0,0,0,0,0,0,0,0,0,0,0,0,0.275482,0.0495868,0,0,0,0,0,0,0,0,0,0,0,0,0,0,0,0,0,0,0,0,0,0,0,0,0,0,0,0,0,0,26.5046,0.0450515,0.01143734,0.973158,2255.17,0.0546411,3290,2.60318,0.0809301,191.047,80,138.42,294.573,8.65014,1581.65,0,0,0,0,0,0,0,0,0,0,0,0,0,0,0,0,0,0,0,0,0,0.0505093,0,0,0,0,0,0,0,0,0,0,0,0,0,0,0,0,0,-0.052433,0.0738365,0,0,0,0,0,0,0,0,0,0,0,0,0,0,0,0,0,0,0,0,0,0,0,0,0,0,0,0,0,0,-0.0382949,0.0738365,0,0,0,0,0,0,0,0,0,0,0,0,0,0,0,0,0,0,0,0,0,0,0,0,0,0,0,0,0,0,0,0,0,0,0,0,0,0,0,0,0,0,0,0,0,0,0,0,0,0,0,-0.008614874,0,0,0,0,0,0,0,0,0,0,0,0,0,0,0,0,0,-0.0719951,-0.19239,0,0,0,0,0,0,0,0,0,0,0,0,0,0,0,0,0,0,0,0,0,0,0,0,0,0,0,0,0,0,0.191079,-0.408404,0,0,0,0,0,0,0,0,0,0,0,0,0,0,0,0,0,0,0,0,0,0,0,0,0,0,0,0,0,0
HfNbSi0.5TiVZr,7.5,A,M,BCC+Laves+M5Si3,33,1,800,102,13.6,,,0,1,0,0,0,,0.001,0,,25,,0,1100,4,10,0,,,,Hf1 Nb1 Si0.5 Ti1 V1 Zr1,0,0,0,0,0,0,0,0,0,0,0,0,0,0.0909091,0,0,0,0,0,0,0,0.181818,0.181818,0,0,0,0,0,0,0,0,0,0,0,0,0,0,0,0,0.181818,0.181818,0,0,0,0,0,0,0,0,0,0,0,0,0,0,0,0,0,0,0,0,0,0,0,0,0,0,0,0,0,0,0.181818,0,0,0,0,0,0,0,0,0,0,0,0,0,0,0,0,0,0,0,0,0,0,0,0,0,0,0,0,0,0,0,1.51737,0.101387,0.0146972,-21.7521,2245.73,0.132231,2750,6.79706,0.117689,146.023,50,108.681,307.273,6.90909,2998.45,0,0,0,0,0,0,0,0,0,0,0,0,0,0.297106,0,0,0,0,0,0,0,-0.0187476,0.0942753,0,0,0,0,0,0,0,0,0,0,0,0,0,0,0,0,-0.121348,0.004542026,0,0,0,0,0,0,0,0,0,0,0,0,0,0,0,0,0,0,0,0,0,0,0,0,0,0,0,0,0,0,-0.107274,0,0,0,0,0,0,0,0,0,0,0,0,0,0,0,0,0,0,0,0,0,0,0,0,0,0,0,0,0,0,0,0,0,0,0,0,0,0,0,0,0,0,0,0,-0.369031,0,0,0,0,0,0,0,0.0894507,-0.124525,0,0,0,0,0,0,0,0,0,0,0,0,0,0,0,0,0.026243,-0.0942528,0,0,0,0,0,0,0,0,0,0,0,0,0,0,0,0,0,0,0,0,0,0,0,0,0,0,0,0,0,0,0.287599,0,0,0,0,0,0,0,0,0,0,0,0,0,0,0,0,0,0,0,0,0,0,0,0,0,0,0,0,0,0,0
HfNbTaTiZr,9.9,CR+A,s,BCC,34,0,25,830,83.9,7.92,309,0,1,1,0,0,100,0.001,1,,25,,0,1100,5,10,0,,,,Hf1 Nb1 Ta1 Ti1 Zr1,0,0,0,0,0,0,0,0,0,0,0,0,0,0,0,0,0,0,0,0,0,0.2,0,0,0,0,0,0,0,0,0,0,0,0,0,0,0,0,0,0.2,0.2,0,0,0,0,0,0,0,0,0,0,0,0,0,0,0,0,0,0,0,0,0,0,0,0,0,0,0,0,0,0,0.2,0.2,0,0,0,0,0,0,0,0,0,0,0,0,0,0,0,0,0,0,0,0,0,0,0,0,0,0,0,0,0,0,12.4117,0.0497103,0.0133809,2.72,2523,0.16,3290,3.21996,0.0813301,158,80,128.75,384,10,1664.59,0,0,0,0,0,0,0,0,0,0,0,0,0,0,0,0,0,0,0,0,0,0.0290088,0,0,0,0,0,0,0,0,0,0,0,0,0,0,0,0,0,-0.0739135,0.0523441,0,0,0,0,0,0,0,0,0,0,0,0,0,0,0,0,0,0,0,0,0,0,0,0,0,0,0,0,0,0,-0.0597835,0.0523441,0,0,0,0,0,0,0,0,0,0,0,0,0,0,0,0,0,0,0,0,0,0,0,0,0,0,0,0,0,0,0,0,0,0,0,0,0,0,0,0,0,0,0,0,0,0,0,0,0,0,0,0.0899122,0,0,0,0,0,0,0,0,0,0,0,0,0,0,0,0,0,0.0267824,-0.0935667,0,0,0,0,0,0,0,0,0,0,0,0,0,0,0,0,0,0,0,0,0,0,0,0,0,0,0,0,0,0,0.287817,-0.310945,0,0,0,0,0,0,0,0,0,0,0,0,0,0,0,0,0,0,0,0,0,0,0,0,0,0,0,0,0,0
HfNbTaTiZr,9.9,CR+A,s,BCC,37,0,25,940,95,15.47,,0,1,1,0,0,30,0.0001,1,,25,,0,1050,6,10,86,,,,Hf1 Nb1 Ta1 Ti1 Zr1,0,0,0,0,0,0,0,0,0,0,0,0,0,0,0,0,0,0,0,0,0,0.2,0,0,0,0,0,0,0,0,0,0,0,0,0,0,0,0,0,0.2,0.2,0,0,0,0,0,0,0,0,0,0,0,0,0,0,0,0,0,0,0,0,0,0,0,0,0,0,0,0,0,0,0.2,0.2,0,0,0,0,0,0,0,0,0,0,0,0,0,0,0,0,0,0,0,0,0,0,0,0,0,0,0,0,0,0,12.4117,0.0497103,0.0133809,2.72,2523,0.16,3290,3.21996,0.0813301,158,80,128.75,384,10,1664.59,0,0,0,0,0,0,0,0,0,0,0,0,0,0,0,0,0,0,0,0,0,0.0290088,0,0,0,0,0,0,0,0,0,0,0,0,0,0,0,0,0,-0.0739135,0.0523441,0,0,0,0,0,0,0,0,0,0,0,0,0,0,0,0,0,0,0,0,0,0,0,0,0,0,0,0,0,0,-0.0597835,0.0523441,0,0,0,0,0,0,0,0,0,0,0,0,0,0,0,0,0,0,0,0,0,0,0,0,0,0,0,0,0,0,0,0,0,0,0,0,0,0,0,0,0,0,0,0,0,0,0,0,0,0,0,0.0899122,0,0,0,0,0,0,0,0,0,0,0,0,0,0,0,0,0,0.0267824,-0.0935667,0,0,0,0,0,0,0,0,0,0,0,0,0,0,0,0,0,0,0,0,0,0,0,0,0,0,0,0,0,0,0.287817,-0.310945,0,0,0,0,0,0,0,0,0,0,0,0,0,0,0,0,0,0,0,0,0,0,0,0,0,0,0,0,0,0
HfNbTaTiZr,9.9,AC,s,BCC,41,0,25,803,81.2,9.17,,0,0,0,0,0,,0.005,1,,25,,0,25,0,10,0,,,,Hf1 Nb1 Ta1 Ti1 Zr1,0,0,0,0,0,0,0,0,0,0,0,0,0,0,0,0,0,0,0,0,0,0.2,0,0,0,0,0,0,0,0,0,0,0,0,0,0,0,0,0,0.2,0.2,0,0,0,0,0,0,0,0,0,0,0,0,0,0,0,0,0,0,0,0,0,0,0,0,0,0,0,0,0,0,0.2,0.2,0,0,0,0,0,0,0,0,0,0,0,0,0,0,0,0,0,0,0,0,0,0,0,0,0,0,0,0,0,0,12.4117,0.0497103,0.0133809,2.72,2523,0.16,3290,3.21996,0.0813301,158,80,128.75,384,10,1664.59,0,0,0,0,0,0,0,0,0,0,0,0,0,0,0,0,0,0,0,0,0,0.0290088,0,0,0,0,0,0,0,0,0,0,0,0,0,0,0,0,0,-0.0739135,0.0523441,0,0,0,0,0,0,0,0,0,0,0,0,0,0,0,0,0,0,0,0,0,0,0,0,0,0,0,0,0,0,-0.0597835,0.0523441,0,0,0,0,0,0,0,0,0,0,0,0,0,0,0,0,0,0,0,0,0,0,0,0,0,0,0,0,0,0,0,0,0,0,0,0,0,0,0,0,0,0,0,0,0,0,0,0,0,0,0,0.0899122,0,0,0,0,0,0,0,0,0,0,0,0,0,0,0,0,0,0.0267824,-0.0935667,0,0,0,0,0,0,0,0,0,0,0,0,0,0,0,0,0,0,0,0,0,0,0,0,0,0,0,0,0,0,0.287817,-0.310945,0,0,0,0,0,0,0,0,0,0,0,0,0,0,0,0,0,0,0,0,0,0,0,0,0,0,0,0,0,0
HfNbTaTiZr,9.9,HIP+A,s,BCC,42,1,800,285,28.8,28.52,,1,1,0,0,0,150,1.00E-05,1,,1200,207,1,1200,24,10,0,,,,Hf1 Nb1 Ta1 Ti1 Zr1,0,0,0,0,0,0,0,0,0,0,0,0,0,0,0,0,0,0,0,0,0,0.2,0,0,0,0,0,0,0,0,0,0,0,0,0,0,0,0,0,0.2,0.2,0,0,0,0,0,0,0,0,0,0,0,0,0,0,0,0,0,0,0,0,0,0,0,0,0,0,0,0,0,0,0.2,0.2,0,0,0,0,0,0,0,0,0,0,0,0,0,0,0,0,0,0,0,0,0,0,0,0,0,0,0,0,0,0,12.4117,0.0497103,0.0133809,2.72,2523,0.16,3290,3.21996,0.0813301,158,80,128.75,384,10,1664.59,0,0,0,0,0,0,0,0,0,0,0,0,0,0,0,0,0,0,0,0,0,0.0290088,0,0,0,0,0,0,0,0,0,0,0,0,0,0,0,0,0,-0.0739135,0.0523441,0,0,0,0,0,0,0,0,0,0,0,0,0,0,0,0,0,0,0,0,0,0,0,0,0,0,0,0,0,0,-0.0597835,0.0523441,0,0,0,0,0,0,0,0,0,0,0,0,0,0,0,0,0,0,0,0,0,0,0,0,0,0,0,0,0,0,0,0,0,0,0,0,0,0,0,0,0,0,0,0,0,0,0,0,0,0,0,0.0899122,0,0,0,0,0,0,0,0,0,0,0,0,0,0,0,0,0,0.0267824,-0.0935667,0,0,0,0,0,0,0,0,0,0,0,0,0,0,0,0,0,0,0,0,0,0,0,0,0,0,0,0,0,0,0.287817,-0.310945,0,0,0,0,0,0,0,0,0,0,0,0,0,0,0,0,0,0,0,0,0,0,0,0,0,0,0,0,0,0
HfNbTaZr,11.1,A,M,BCC+HCP,43,1,25,1740,176.3,5.38,495.2,0,1,0,0,0,,0.001,1,,25,,0,1800,6,10,0,,,,Hf1 Nb1 Ta1 Zr1,0,0,0,0,0,0,0,0,0,0,0,0,0,0,0,0,0,0,0,0,0,0,0,0,0,0,0,0,0,0,0,0,0,0,0,0,0,0,0,0.25,0.25,0,0,0,0,0,0,0,0,0,0,0,0,0,0,0,0,0,0,0,0,0,0,0,0,0,0,0,0,0,0,0.25,0.25,0,0,0,0,0,0,0,0,0,0,0,0,0,0,0,0,0,0,0,0,0,0,0,0,0,0,0,0,0,0,8.78749,0.0531867,0.0115257,3.5,2668.5,0.25,3290,2.8013,0.0859766,135,80,116.667,432.5,11.5,2248.76,0,0,0,0,0,0,0,0,0,0,0,0,0,0,0,0,0,0,0,0,0,0,0,0,0,0,0,0,0,0,0,0,0,0,0,0,0,0,0,-0.0666565,0.059591,0,0,0,0,0,0,0,0,0,0,0,0,0,0,0,0,0,0,0,0,0,0,0,0,0,0,0,0,0,0,-0.0525254,0.059591,0,0,0,0,0,0,0,0,0,0,0,0,0,0,0,0,0,0,0,0,0,0,0,0,0,0,0,0,0,0,0,0,0,0,0,0,0,0,0,0,0,0,0,0,0,0,0,0,0,0,0,0,0,0,0,0,0,0,0,0,0,0,0,0,0,0,0,0,0,0.0493936,-0.0708015,0,0,0,0,0,0,0,0,0,0,0,0,0,0,0,0,0,0,0,0,0,0,0,0,0,0,0,0,0,0,0.309651,-0.288243,0,0,0,0,0,0,0,0,0,0,0,0,0,0,0,0,0,0,0,0,0,0,0,0,0,0,0,0,0,0
Mo0.1NbTiV0.3Zr,6.6,AC,s,BCC,46,1,25,932,141.2,43.8,,0,0,0,0,0,,0.001,1,,25,,0,25,0,10,0,,,,Mo0.1 Nb1 Ti1 V0.3 Zr1,0,0,0,0,0,0,0,0,0,0,0,0,0,0,0,0,0,0,0,0,0,0.294118,0.0882353,0,0,0,0,0,0,0,0,0,0,0,0,0,0,0,0,0.294118,0.294118,0.0294118,0,0,0,0,0,0,0,0,0,0,0,0,0,0,0,0,0,0,0,0,0,0,0,0,0,0,0,0,0,0,0,0,0,0,0,0,0,0,0,0,0,0,0,0,0,0,0,0,0,0,0,0,0,0,0,0,0,0,0,0,0,33.3413,0.0596468,0.0116207,0.795848,2283.38,0.346021,2896,2.96168,0.105383,191.765,50,127.742,290.294,4.44118,1893.35,0,0,0,0,0,0,0,0,0,0,0,0,0,0,0,0,0,0,0,0,0,0.0110627,0.124241,0,0,0,0,0,0,0,0,0,0,0,0,0,0,0,0,-0.0918083,0.0343967,0.0907637,0,0,0,0,0,0,0,0,0,0,0,0,0,0,0,0,0,0,0,0,0,0,0,0,0,0,0,0,0,0,0,0,0,0,0,0,0,0,0,0,0,0,0,0,0,0,0,0,0,0,0,0,0,0,0,0,0,0,0,0,0,0,0,0,0,0,0,0,0,0,0,0,0,0,0,0,0,0,0,0,0,0,0.0703409,-0.143937,0,0,0,0,0,0,0,0,0,0,0,0,0,0,0,0,0.007013333,-0.11364,0.794669,0,0,0,0,0,0,0,0,0,0,0,0,0,0,0,0,0,0,0,0,0,0,0,0,0,0,0,0,0,0,0,0,0,0,0,0,0,0,0,0,0,0,0,0,0,0,0,0,0,0,0,0,0,0,0,0,0,0,0,0,0
Mo1.3NbTiV0.3Zr,7.4,AC,s,BCC,46,1,25,1603,216.2,19.57,,0,0,0,0,0,,0.001,1,,25,,0,25,0,10,0,,,,Mo1.3 Nb1 Ti1 V0.3 Zr1,0,0,0,0,0,0,0,0,0,0,0,0,0,0,0,0,0,0,0,0,0,0.217391,0.0652174,0,0,0,0,0,0,0,0,0,0,0,0,0,0,0,0,0.217391,0.217391,0.282609,0,0,0,0,0,0,0,0,0,0,0,0,0,0,0,0,0,0,0,0,0,0,0,0,0,0,0,0,0,0,0,0,0,0,0,0,0,0,0,0,0,0,0,0,0,0,0,0,0,0,0,0,0,0,0,0,0,0,0,0,0,9.73085,0.0632815,0.012724,-3.19471,2443.2,0.189036,2896,4.01728,0.184917,212.174,50,136.744,378.913,4.84783,1874.53,0,0,0,0,0,0,0,0,0,0,0,0,0,0,0,0,0,0,0,0,0,-0.0126373,0.100591,0,0,0,0,0,0,0,0,0,0,0,0,0,0,0,0,-0.115449,0.0106972,0.0670862,0,0,0,0,0,0,0,0,0,0,0,0,0,0,0,0,0,0,0,0,0,0,0,0,0,0,0,0,0,0,0,0,0,0,0,0,0,0,0,0,0,0,0,0,0,0,0,0,0,0,0,0,0,0,0,0,0,0,0,0,0,0,0,0,0,0,0,0,0,0,0,0,0,0,0,0,0,0,0,0,0,0,-0.140037,-0.346967,0,0,0,0,0,0,0,0,0,0,0,0,0,0,0,0,-0.201539,-0.317908,0.587364,0,0,0,0,0,0,0,0,0,0,0,0,0,0,0,0,0,0,0,0,0,0,0,0,0,0,0,0,0,0,0,0,0,0,0,0,0,0,0,0,0,0,0,0,0,0,0,0,0,0,0,0,0,0,0,0,0,0,0,0,0
MoNbTiVZr,7.1,AC,S,BCC,46,1,25,1779,249.7,29.21,,0,0,0,0,0,,0.001,1,,25,,0,25,0,10,0,,,,Mo1 Nb1 Ti1 V1 Zr1,0,0,0,0,0,0,0,0,0,0,0,0,0,0,0,0,0,0,0,0,0,0.2,0.2,0,0,0,0,0,0,0,0,0,0,0,0,0,0,0,0,0.2,0.2,0.2,0,0,0,0,0,0,0,0,0,0,0,0,0,0,0,0,0,0,0,0,0,0,0,0,0,0,0,0,0,0,0,0,0,0,0,0,0,0,0,0,0,0,0,0,0,0,0,0,0,0,0,0,0,0,0,0,0,0,0,0,0,11.7063,0.0674089,0.0133809,-2.72,2379.6,0.16,2896,4.06383,0.166323,186,50,135,364,4.8,2032.08,0,0,0,0,0,0,0,0,0,0,0,0,0,0,0,0,0,0,0,0,0,-0.0227024,0.090529,0,0,0,0,0,0,0,0,0,0,0,0,0,0,0,0,-0.125473,0.000628482,0.0570178,0,0,0,0,0,0,0,0,0,0,0,0,0,0,0,0,0,0,0,0,0,0,0,0,0,0,0,0,0,0,0,0,0,0,0,0,0,0,0,0,0,0,0,0,0,0,0,0,0,0,0,0,0,0,0,0,0,0,0,0,0,0,0,0,0,0,0,0,0,0,0,0,0,0,0,0,0,0,0,0,0,0,-0.054577,-0.263877,0,0,0,0,0,0,0,0,0,0,0,0,0,0,0,0,-0.116634,-0.234399,0.669486,0,0,0,0,0,0,0,0,0,0,0,0,0,0,0,0,0,0,0,0,0,0,0,0,0,0,0,0,0,0,0,0,0,0,0,0,0,0,0,0,0,0,0,0,0,0,0,0,0,0,0,0,0,0,0,0,0,0,0,0,0
MoNbTaW,13.7,AC,s,BCC,47,1,25,996,72.9,1.9,,0,0,0,0,0,,0.00056,1,,25,,0,25,0,10,0,,,,Mo1 Nb1 Ta1 W1,0,0,0,0,0,0,0,0,0,0,0,0,0,0,0,0,0,0,0,0,0,0,0,0,0,0,0,0,0,0,0,0,0,0,0,0,0,0,0,0,0.25,0.25,0,0,0,0,0,0,0,0,0,0,0,0,0,0,0,0,0,0,0,0,0,0,0,0,0,0,0,0,0,0,0.25,0.25,0,0,0,0,0,0,0,0,0,0,0,0,0,0,0,0,0,0,0,0,0,0,0,0,0,0,0,0,0,5.59925,0.023393,0.0115257,-6.5,3157.75,0,3695,4.02891,0.190917,317.5,80,238.333,682.5,12.5,2597.09,0,0,0,0,0,0,0,0,0,0,0,0,0,0,0,0,0,0,0,0,0,0,0,0,0,0,0,0,0,0,0,0,0,0,0,0,0,0,0,0,-0.0261665,0.0302862,0,0,0,0,0,0,0,0,0,0,0,0,0,0,0,0,0,0,0,0,0,0,0,0,0,0,0,0,0,0,-0.0261665,0.0220467,0,0,0,0,0,0,0,0,0,0,0,0,0,0,0,0,0,0,0,0,0,0,0,0,0,0,0,0,0,0,0,0,0,0,0,0,0,0,0,0,0,0,0,0,0,0,0,0,0,0,0,0,0,0,0,0,0,0,0,0,0,0,0,0,0,0,0,0,0,0.140346,0.93058,0,0,0,0,0,0,0,0,0,0,0,0,0,0,0,0,0,0,0,0,0,0,0,0,0,0,0,0,0,0,-0.0550385,-1.01589,0,0,0,0,0,0,0,0,0,0,0,0,0,0,0,0,0,0,0,0,0,0,0,0,0,0,0,0,0
MoNbTaTiW,11.8,AC,s,BCC,49,1,25,1343,114.2,16.41,498.7,0,0,0,0,0,,0.001,1,,25,,0,25,0,10,0,,,,Mo1 Nb1 Ta1 Ti1 W1,0,0,0,0,0,0,0,0,0,0,0,0,0,0,0,0,0,0,0,0,0,0.2,0,0,0,0,0,0,0,0,0,0,0,0,0,0,0,0,0,0,0.2,0.2,0,0,0,0,0,0,0,0,0,0,0,0,0,0,0,0,0,0,0,0,0,0,0,0,0,0,0,0,0,0,0.2,0.2,0,0,0,0,0,0,0,0,0,0,0,0,0,0,0,0,0,0,0,0,0,0,0,0,0,0,0,0,0,7.38583,0.0272842,0.0133809,-5.28,2914.4,0.08,3695,4.12771,0.19463,304,80,220,584,10.8,1949.91,0,0,0,0,0,0,0,0,0,0,0,0,0,0,0,0,0,0,0,0,0,-0.039611,0,0,0,0,0,0,0,0,0,0,0,0,0,0,0,0,0,0,-0.0162619,0.0401864,0,0,0,0,0,0,0,0,0,0,0,0,0,0,0,0,0,0,0,0,0,0,0,0,0,0,0,0,0,0,-0.0162619,0.0319483,0,0,0,0,0,0,0,0,0,0,0,0,0,0,0,0,0,0,0,0,0,0,0,0,0,0,0,0,0,0,0,0,0,0,0,0,0,0,0,0,0,0,0,0,0,0,0,0,0,0,0.242233,0,0,0,0,0,0,0,0,0,0,0,0,0,0,0,0,0,0,0.075351,0.891686,0,0,0,0,0,0,0,0,0,0,0,0,0,0,0,0,0,0,0,0,0,0,0,0,0,0,0,0,0,0,-0.124382,-1.08489,0,0,0,0,0,0,0,0,0,0,0,0,0,0,0,0,0,0,0,0,0,0,0,0,0,0,0,0,0
MoNbTaTiZr,9.1,A,M,2 BCC,51,1,25,1100,120.4,7.51,,0,1,0,0,0,,0.000167,1,,25,,0,1000,168,10,0,,,,Mo1 Nb1 Ta1 Ti1 Zr1,0,0,0,0,0,0,0,0,0,0,0,0,0,0,0,0,0,0,0,0,0,0.2,0,0,0,0,0,0,0,0,0,0,0,0,0,0,0,0,0,0.2,0.2,0.2,0,0,0,0,0,0,0,0,0,0,0,0,0,0,0,0,0,0,0,0,0,0,0,0,0,0,0,0,0,0,0.2,0,0,0,0,0,0,0,0,0,0,0,0,0,0,0,0,0,0,0,0,0,0,0,0,0,0,0,0,0,0,19.7748,0.0543581,0.0133809,-1.76,2601,0.16,3290,3.79297,0.173235,192,80,150,440,7.6,1576.02,0,0,0,0,0,0,0,0,0,0,0,0,0,0,0,0,0,0,0,0,0,-0.004711772,0,0,0,0,0,0,0,0,0,0,0,0,0,0,0,0,0,-0.10757,0.0186285,0.0750246,0,0,0,0,0,0,0,0,0,0,0,0,0,0,0,0,0,0,0,0,0,0,0,0,0,0,0,0,0,0,0.0186285,0,0,0,0,0,0,0,0,0,0,0,0,0,0,0,0,0,0,0,0,0,0,0,0,0,0,0,0,0,0,0,0,0,0,0,0,0,0,0,0,0,0,0,0,0,0,0,0,0,0,0,-0.0172129,0,0,0,0,0,0,0,0,0,0,0,0,0,0,0,0,0,-0.0790085,-0.196437,0.700054,0,0,0,0,0,0,0,0,0,0,0,0,0,0,0,0,0,0,0,0,0,0,0,0,0,0,0,0,0,0,-0.407396,0,0,0,0,0,0,0,0,0,0,0,0,0,0,0,0,0,0,0,0,0,0,0,0,0,0,0,0,0,0
MoNbTaVW,12.4,HIP+A,s,BCC,54,1,1000,842,68,17.64,,0,1,0,0,0,80,0.001,1,,25,,0,1400,19,10,0,,,,Mo1 Nb1 Ta1 V1 W1,0,0,0,0,0,0,0,0,0,0,0,0,0,0,0,0,0,0,0,0,0,0,0.2,0,0,0,0,0,0,0,0,0,0,0,0,0,0,0,0,0,0.2,0.2,0,0,0,0,0,0,0,0,0,0,0,0,0,0,0,0,0,0,0,0,0,0,0,0,0,0,0,0,0,0,0.2,0.2,0,0,0,0,0,0,0,0,0,0,0,0,0,0,0,0,0,0,0,0,0,0,0,0,0,0,0,0,0,8.54414,0.0308354,0.0133809,-4.64,2962.8,0,3695,4.15944,0.185619,264,50,183.75,622,11,2316.21,0,0,0,0,0,0,0,0,0,0,0,0,0,0,0,0,0,0,0,0,0,0,0.05108073,0,0,0,0,0,0,0,0,0,0,0,0,0,0,0,0,0,-0.03893318,0.0175126,0,0,0,0,0,0,0,0,0,0,0,0,0,0,0,0,0,0,0,0,0,0,0,0,0,0,0,0,0,0,-0.03893318,0.00927305,0,0,0,0,0,0,0,0,0,0,0,0,0,0,0,0,0,0,0,0,0,0,0,0,0,0,0,0,0,0,0,0,0,0,0,0,0,0,0,0,0,0,0,0,0,0,0,0,0,0,0,0.0907045,0,0,0,0,0,0,0,0,0,0,0,0,0,0,0,0,0,0.118386,0.928908,0,0,0,0,0,0,0,0,0,0,0,0,0,0,0,0,0,0,0,0,0,0,0,0,0,0,0,0,0,0,-0.0820432,-1.05596,0,0,0,0,0,0,0,0,0,0,0,0,0,0,0,0,0,0,0,0,0,0,0,0,0,0,0,0,0
MoNbTaW,13.7,HIP+A,S,BCC,54,1,1000,548,40.1,22.24,,0,1,0,0,0,200,0.001,1,,25,,0,1400,19,10,0,,,,Mo1 Nb1 Ta1 W1,0,0,0,0,0,0,0,0,0,0,0,0,0,0,0,0,0,0,0,0,0,0,0,0,0,0,0,0,0,0,0,0,0,0,0,0,0,0,0,0,0.25,0.25,0,0,0,0,0,0,0,0,0,0,0,0,0,0,0,0,0,0,0,0,0,0,0,0,0,0,0,0,0,0,0.25,0.25,0,0,0,0,0,0,0,0,0,0,0,0,0,0,0,0,0,0,0,0,0,0,0,0,0,0,0,0,0,5.59925,0.023393,0.0115257,-6.5,3157.75,0,3695,4.02891,0.190917,317.5,80,238.333,682.5,12.5,2597.09,0,0,0,0,0,0,0,0,0,0,0,0,0,0,0,0,0,0,0,0,0,0,0,0,0,0,0,0,0,0,0,0,0,0,0,0,0,0,0,0,-0.0261665,0.0302862,0,0,0,0,0,0,0,0,0,0,0,0,0,0,0,0,0,0,0,0,0,0,0,0,0,0,0,0,0,0,-0.0261665,0.0220467,0,0,0,0,0,0,0,0,0,0,0,0,0,0,0,0,0,0,0,0,0,0,0,0,0,0,0,0,0,0,0,0,0,0,0,0,0,0,0,0,0,0,0,0,0,0,0,0,0,0,0,0,0,0,0,0,0,0,0,0,0,0,0,0,0,0,0,0,0,0.140346,0.93058,0,0,0,0,0,0,0,0,0,0,0,0,0,0,0,0,0,0,0,0,0,0,0,0,0,0,0,0,0,0,-0.0550385,-1.01589,0,0,0,0,0,0,0,0,0,0,0,0,0,0,0,0,0,0,0,0,0,0,0,0,0,0,0,0,0
MoNbTiV2Zr,7,AC,M,2 BCC,55,1,25,1520,217.5,13.52,,0,0,0,0,0,,0.0002,1,,25,,0,25,0,10,0,,,,Mo1 Nb1 Ti1 V2 Zr1,0,0,0,0,0,0,0,0,0,0,0,0,0,0,0,0,0,0,0,0,0,0.166667,0.333333,0,0,0,0,0,0,0,0,0,0,0,0,0,0,0,0,0.166667,0.166667,0.166667,0,0,0,0,0,0,0,0,0,0,0,0,0,0,0,0,0,0,0,0,0,0,0,0,0,0,0,0,0,0,0,0,0,0,0,0,0,0,0,0,0,0,0,0,0,0,0,0,0,0,0,0,0,0,0,0,0,0,0,0,0,11.4195,0.0692135,0.0129757,-2.66667,2346.83,0.111111,2896,3.91672,0.15225,163.333,50,135,366.667,4.83333,2359.49,0,0,0,0,0,0,0,0,0,0,0,0,0,0,0,0,0,0,0,0,0,-0.0378035,0.0754408,0,0,0,0,0,0,0,0,0,0,0,0,0,0,0,0,-0.14052,-0.0144763,0.04191785,0,0,0,0,0,0,0,0,0,0,0,0,0,0,0,0,0,0,0,0,0,0,0,0,0,0,0,0,0,0,0,0,0,0,0,0,0,0,0,0,0,0,0,0,0,0,0,0,0,0,0,0,0,0,0,0,0,0,0,0,0,0,0,0,0,0,0,0,0,0,0,0,0,0,0,0,0,0,0,0,0,0,-0.009658462,-0.219897,0,0,0,0,0,0,0,0,0,0,0,0,0,0,0,0,-0.07191462,-0.190241,0.711609,0,0,0,0,0,0,0,0,0,0,0,0,0,0,0,0,0,0,0,0,0,0,0,0,0,0,0,0,0,0,0,0,0,0,0,0,0,0,0,0,0,0,0,0,0,0,0,0,0,0,0,0,0,0,0,0,0,0,0,0,0
NbTaVW,12.9,AC,S,BCC,56,1,25,1530,118.7,11.11,492.5,0,0,0,0,0,,0.0005,1,,25,,0,25,0,10,0,,,,Nb1 Ta1 V1 W1,0,0,0,0,0,0,0,0,0,0,0,0,0,0,0,0,0,0,0,0,0,0,0.25,0,0,0,0,0,0,0,0,0,0,0,0,0,0,0,0,0,0.25,0,0,0,0,0,0,0,0,0,0,0,0,0,0,0,0,0,0,0,0,0,0,0,0,0,0,0,0,0,0,0,0.25,0.25,0,0,0,0,0,0,0,0,0,0,0,0,0,0,0,0,0,0,0,0,0,0,0,0,0,0,0,0,0,7.63126,0.0331747,0.0115257,-4.5,2979.5,0,3695,3.6481,0.193281,262.5,50,191.667,620,12.25,2910.77,0,0,0,0,0,0,0,0,0,0,0,0,0,0,0,0,0,0,0,0,0,0,0.05545539,0,0,0,0,0,0,0,0,0,0,0,0,0,0,0,0,0,-0.0345536,0,0,0,0,0,0,0,0,0,0,0,0,0,0,0,0,0,0,0,0,0,0,0,0,0,0,0,0,0,0,0,-0.0345536,0.0136518,0,0,0,0,0,0,0,0,0,0,0,0,0,0,0,0,0,0,0,0,0,0,0,0,0,0,0,0,0,0,0,0,0,0,0,0,0,0,0,0,0,0,0,0,0,0,0,0,0,0,0,0.343936,0,0,0,0,0,0,0,0,0,0,0,0,0,0,0,0,0,0.372148,0,0,0,0,0,0,0,0,0,0,0,0,0,0,0,0,0,0,0,0,0,0,0,0,0,0,0,0,0,0,0,0.166211,-0.882296,0,0,0,0,0,0,0,0,0,0,0,0,0,0,0,0,0,0,0,0,0,0,0,0,0,0,0,0,0